# Created by:        SpecsLab Prodigy, Version 4.74.2-r95700
#
# XY-Serializer Export Settings:
#   Comment Prefix:           #
#   Output Meta Data:         yes
#   Energy Axis:              Binding Energy
#   Count Rate:               Counts per Second
#   Separate Scan Data:       no
#   Separate Channel Data:    no
#   External Channel Data:    yes
#   Transmission Function:    no
#   Error Bar:                no
#   Operation Results:        yes
#   Time Zone Format:         UTC
#
# Group:             UHV Evap
#
# Region:            survey
# Spectrum ID:       1
# Acquisition Date:  06/30/22 14:03:47 UTC
# Analysis Method:   XPS
# Analyzer:          Analyzer
# Analyzer Lens:     MediumArea:1.5kV
# Analyzer Slit:     4:3x20\B:open
# Scan Mode:         FixedAnalyzerTransmission
# Curves/Scan:       1
# Values/Curve:      941
# Dwell Time:        0.1
# Excitation Energy: 1486.71
# Binding Energy:    936.71
# Pass Energy:       50
# Bias Voltage:      -1
# Detector Voltage:  1800
# Eff. Workfunction: 4.498
# Source:            XR 50 MF (UXC1000)
# Comment:
# OrdinateRange:     [-7.000000, 7.000000]
#
# Cycle: 0
# Number of Scans: 1
#
# Cycle: 0, Curve: 0
# Acquisition Date: 06/30/22 14:03:47 UTC
#
# ColumnLabels: energy counts/s
#
936.71  28.673207
935.71  32.507563
934.71  39.731594
933.71  144.281
932.71  347.11133
931.71  77.25968
930.71  25.075202
929.71  17.701157
928.71  18.331577
927.71  17.601568
926.71  18.20757
925.71  16.086292
924.71  17.741106
923.71  16.479358
922.71  15.566556
921.71  16.102597
920.71  17.322438
919.71  17.010934
918.71  17.593737
917.71  16.934438
916.71  16.526485
915.71  16.616389
914.71  17.819614
913.71  17.022133
912.71  15.988078
911.71  16.953243
910.71  16.805845
909.71  17.75455
908.71  17.710041
907.71  17.760719
906.71  17.177947
905.71  16.005304
904.71  17.860539
903.71  17.877999
902.71  14.491965
901.71  16.404331
900.71  17.49614
899.71  17.499564
898.71  17.073178
897.71  16.051797
896.71  17.297279
895.71  19.85688
894.71  16.859213
893.71  17.207837
892.71  17.015089
891.71  16.897469
890.71  16.920938
889.71  16.631954
888.71  17.144893
887.71  17.76764
886.71  17.781146
885.71  18.303266
884.71  17.322515
883.71  17.796535
882.71  18.726249
881.71  19.637453
880.71  20.133583
879.71  19.092629
878.71  17.378191
877.71  19.070397
876.71  21.365359
875.71  19.330971
874.71  15.31368
873.71  19.583687
872.71  19.885545
871.71  18.413862
870.71  18.097597
869.71  17.942331
868.71  19.344026
867.71  21.030007
866.71  18.861886
865.71  20.505947
864.71  20.460575
863.71  17.630965
862.71  17.765593
861.71  19.363484
860.71  19.016248
859.71  21.238127
858.71  23.700202
857.71  19.637998
856.71  17.626527
855.71  20.207451
854.71  18.812406
853.71  20.910086
852.71  17.358058
851.71  19.419752
850.71  21.799079
849.71  21.880457
848.71  19.866752
847.71  20.361247
846.71  20.149736
845.71  20.489184
844.71  20.43499
843.71  18.636511
842.71  20.742262
841.71  19.504322
840.71  19.345102
839.71  20.541893
838.71  22.298783
837.71  21.104492
836.71  20.119376
835.71  19.471736
834.71  24.512325
833.71  23.028346
832.71  20.847626
831.71  20.865797
830.71  23.291199
829.71  25.178254
828.71  23.831637
827.71  22.516971
826.71  23.218912
825.71  22.153
824.71  22.930691
823.71  24.493797
822.71  21.329631
821.71  24.143453
820.71  22.982571
819.71  22.287301
818.71  21.058572
817.71  22.908352
816.71  22.825534
815.71  22.992224
814.71  24.369791
813.71  24.573716
812.71  23.281076
811.71  24.369376
810.71  27.701936
809.71  24.87038
808.71  22.793665
807.71  25.254273
806.71  25.186204
805.71  24.149773
804.71  24.734071
803.71  25.11004
802.71  24.535759
801.71  24.523305
800.71  26.070457
799.71  25.41571
798.71  23.87976
797.71  23.501444
796.71  25.062189
795.71  25.941783
794.71  25.328566
793.71  27.259357
792.71  24.495813
791.71  23.452076
790.71  25.435635
789.71  26.840892
788.71  23.89244
787.71  25.523623
786.71  26.590895
785.71  26.475467
784.71  29.277405
783.71  27.846772
782.71  28.183737
781.71  28.264716
780.71  29.055286
779.71  26.049434
778.71  27.727852
777.71  27.623514
776.71  27.524416
775.71  29.384733
774.71  27.504473
773.71  28.866082
772.71  29.373695
771.71  29.01397
770.71  31.407035
769.71  30.984853
768.71  28.539546
767.71  29.392817
766.71  29.485372
765.71  27.138475
764.71  28.50456
763.71  28.467042
762.71  28.765877
761.71  31.143919
760.71  28.023425
759.71  30.045009
758.71  28.573188
757.71  29.267834
756.71  29.763088
755.71  29.624411
754.71  32.036471
753.71  34.549502
752.71  30.872474
751.71  29.317858
750.71  27.852642
749.71  29.037137
748.71  27.978104
747.71  29.059662
746.71  29.411472
745.71  29.779984
744.71  30.810957
743.71  31.0646
742.71  29.102669
741.71  28.636116
740.71  31.152637
739.71  30.978277
738.71  31.048783
737.71  28.096022
736.71  31.328089
735.71  34.057383
734.71  30.389304
733.71  29.418485
732.71  32.64433
731.71  32.394269
730.71  32.229214
729.71  32.31104
728.71  31.57858
727.71  33.743842
726.71  33.43102
725.71  35.439236
724.71  36.250016
723.71  34.17995
722.71  32.702268
721.71  33.804002
720.71  33.449178
719.71  36.402532
718.71  35.467849
717.71  33.75641
716.71  34.26994
715.71  36.688992
714.71  35.072086
713.71  36.364402
712.71  35.194416
711.71  32.038741
710.71  32.474156
709.71  29.783482
708.71  27.832626
707.71  30.519089
706.71  28.013124
705.71  25.141984
704.71  28.066461
703.71  25.997485
702.71  24.573776
701.71  24.768179
700.71  27.346114
699.71  27.290495
698.71  26.464578
697.71  25.733852
696.71  27.367257
695.71  24.662737
694.71  25.20262
693.71  25.79721
692.71  25.494484
691.71  25.874591
690.71  24.650444
689.71  27.625204
688.71  26.443878
687.71  26.136908
686.71  23.922082
685.71  23.400858
684.71  26.67611
683.71  24.533737
682.71  23.941983
681.71  27.683349
680.71  25.505793
679.71  26.515917
678.71  24.485863
677.71  24.693391
676.71  25.918822
675.71  26.423672
674.71  27.169254
673.71  26.656111
672.71  25.354685
671.71  29.367242
670.71  26.113979
669.71  25.671037
668.71  27.349107
667.71  28.603901
666.71  26.247313
665.71  26.674863
664.71  27.000234
663.71  24.724721
662.71  25.0328
661.71  26.144291
660.71  27.764669
659.71  28.132191
658.71  28.400615
657.71  28.27898
656.71  30.407987
655.71  28.641096
654.71  28.708333
653.71  28.778297
652.71  28.522427
651.71  29.507828
650.71  28.619969
649.71  32.221858
648.71  33.300209
647.71  38.404653
646.71  37.793976
645.71  32.940408
644.71  31.977198
643.71  28.929733
642.71  28.492536
641.71  26.659485
640.71  29.578018
639.71  30.660948
638.71  29.165004
637.71  25.801776
636.71  21.793085
635.71  21.39877
634.71  22.381257
633.71  19.903717
632.71  19.330573
631.71  18.937626
630.71  19.650027
629.71  22.972226
628.71  21.386061
627.71  20.6914
626.71  18.946332
625.71  17.45122
624.71  16.671018
623.71  19.58633
622.71  19.61695
621.71  18.849927
620.71  20.104126
619.71  17.70613
618.71  16.80891
617.71  16.302898
616.71  15.164106
615.71  17.1219
614.71  15.50238
613.71  17.262565
612.71  16.550636
611.71  14.719979
610.71  15.749634
609.71  17.051609
608.71  17.452404
607.71  18.032638
606.71  17.080312
605.71  18.69089
604.71  18.449951
603.71  18.899557
602.71  17.969169
601.71  18.694029
600.71  18.465678
599.71  18.16951
598.71  17.510101
597.71  18.781813
596.71  19.440725
595.71  19.618193
594.71  20.916907
593.71  20.580743
592.71  20.967936
591.71  20.553915
590.71  18.770943
589.71  21.689708
588.71  20.388424
587.71  19.238789
586.71  20.299383
585.71  22.096141
584.71  19.377967
583.71  19.103621
582.71  18.36969
581.71  18.417972
580.71  20.150581
579.71  21.482146
578.71  19.802678
577.71  19.757
576.71  23.16182
575.71  22.174768
574.71  24.558785
573.71  28.182586
572.71  31.388584
571.71  29.606771
570.71  32.150226
569.71  35.951345
568.71  49.340406
567.71  60.730694
566.71  31.034162
565.71  22.816345
564.71  20.430252
563.71  13.146674
562.71  10.972161
561.71  12.473408
560.71  11.274638
559.71  11.190104
558.71  10.408885
557.71  9.8083425
556.71  8.3844924
555.71  9.4755531
554.71  8.582835
553.71  9.1958114
552.71  9.4960572
551.71  8.5536597
550.71  8.8713359
549.71  8.6128928
548.71  10.367572
547.71  9.487001
546.71  7.0264808
545.71  5.4411139
544.71  6.6384332
543.71  4.6871826
542.71  4.1658192
541.71  3.304341
540.71  3.9118802
539.71  4.3709374
538.71  5.8307678
537.71  4.045928
536.71  4.4996661
535.71  4.2723559
534.71  4.4125526
533.71  4.7985582
532.71  5.1885519
531.71  4.9296452
530.71  4.2712615
529.71  3.9346766
528.71  3.6299637
527.71  3.7658704
526.71  3.4897775
525.71  3.1803569
524.71  2.893484
523.71  3.8055745
522.71  4.0243369
521.71  4.53255
520.71  3.2814333
519.71  3.6721979
518.71  3.217942
517.71  3.5130986
516.71  3.1971422
515.71  3.3588441
514.71  3.1885454
513.71  3.4256567
512.71  3.450167
511.71  3.4776509
510.71  3.1357744
509.71  3.1805553
508.71  3.3637777
507.71  3.3149347
506.71  3.6885512
505.71  3.7838943
504.71  2.9778653
503.71  3.2861696
502.71  4.2690568
501.71  4.0860289
500.71  4.1653772
499.71  4.2154717
498.71  2.8863651
497.71  3.315893
496.71  3.6884906
495.71  3.6810484
494.71  3.640866
493.71  3.6275267
492.71  4.1936464
491.71  4.0250141
490.71  3.7165817
489.71  3.1332928
488.71  3.1929957
487.71  3.633518
486.71  4.1303263
485.71  3.166179
484.71  3.3681508
483.71  3.1300092
482.71  3.1196343
481.71  3.148128
480.71  3.9413994
479.71  3.7540988
478.71  4.3784598
477.71  3.7125215
476.71  2.9832491
475.71  3.2453323
474.71  2.9944806
473.71  3.0143235
472.71  3.4526993
471.71  3.1755104
470.71  3.6610908
469.71  3.6189895
468.71  3.8778221
467.71  2.7486079
466.71  3.5614172
465.71  3.8708116
464.71  4.4469844
463.71  3.7585136
462.71  3.3492693
461.71  3.7401276
460.71  4.026655
459.71  3.7338829
458.71  4.6753532
457.71  4.1071028
456.71  3.6654151
455.71  2.9257685
454.71  3.118405
453.71  4.0560232
452.71  3.7675382
451.71  3.3232057
450.71  3.1565913
449.71  3.4107153
448.71  4.1745733
447.71  3.2469077
446.71  3.7456394
445.71  3.9430319
444.71  4.3098609
443.71  3.680835
442.71  2.8749331
441.71  4.0639809
440.71  4.9041187
439.71  4.148143
438.71  3.4788872
437.71  3.7808308
436.71  3.912654
435.71  3.7803137
434.71  4.2840118
433.71  5.7430109
432.71  4.0080203
431.71  3.9769774
430.71  4.0148338
429.71  4.286089
428.71  4.5721838
427.71  4.1928681
426.71  3.9203105
425.71  3.8020551
424.71  3.6782673
423.71  3.8582663
422.71  4.0216715
421.71  4.149877
420.71  3.5962523
419.71  3.4098395
418.71  3.6268748
417.71  3.7587013
416.71  3.8867681
415.71  4.1569419
414.71  4.1182533
413.71  4.2291407
412.71  4.5598026
411.71  4.2076825
410.71  4.2214894
409.71  3.8385214
408.71  4.2174686
407.71  4.2405998
406.71  4.0639471
405.71  4.9023601
404.71  4.9647076
403.71  4.1751396
402.71  4.3268289
401.71  4.6937034
400.71  5.3490297
399.71  5.4743121
398.71  6.4281691
397.71  4.6311536
396.71  4.6471367
395.71  5.3366696
394.71  4.2109604
393.71  4.114646
392.71  4.5243003
391.71  5.0086629
390.71  4.5806248
389.71  3.4157967
388.71  4.241546
387.71  4.1165953
386.71  3.713176
385.71  4.252586
384.71  3.8866252
383.71  3.5009191
382.71  3.9548705
381.71  4.4555956
380.71  4.1878309
379.71  4.2966686
378.71  3.7950986
377.71  3.8660405
376.71  4.2138382
375.71  4.5598396
374.71  3.8843272
373.71  4.3868292
372.71  3.4649078
371.71  3.2989636
370.71  4.3323796
369.71  4.0553751
368.71  3.876437
367.71  4.7889724
366.71  5.8994861
365.71  5.1207129
364.71  3.8661345
363.71  4.2288242
362.71  3.7467532
361.71  3.5565884
360.71  4.2951429
359.71  4.0590867
358.71  4.7449525
357.71  3.6374237
356.71  4.1150935
355.71  3.8959507
354.71  4.2467121
353.71  4.6230794
352.71  4.8064614
351.71  5.2555465
350.71  5.2465814
349.71  4.7577353
348.71  4.6919271
347.71  4.5446446
346.71  3.8613219
345.71  3.4289549
344.71  4.288765
343.71  4.8585772
342.71  4.5883299
341.71  4.1847067
340.71  5.0087718
339.71  4.2936224
338.71  3.9906201
337.71  3.6871447
336.71  4.2104246
335.71  4.9854544
334.71  4.2850818
333.71  5.0780223
332.71  5.1529268
331.71  4.274325
330.71  5.2937654
329.71  4.4868015
328.71  3.9347739
327.71  4.5964043
326.71  5.24129
325.71  4.7064636
324.71  4.9271067
323.71  4.3678574
322.71  4.1108563
321.71  4.5238653
320.71  4.6821294
319.71  5.0067636
318.71  5.1773282
317.71  5.0280189
316.71  4.8287676
315.71  4.3469557
314.71  4.1710122
313.71  4.5901894
312.71  4.7681595
311.71  4.9444991
310.71  5.1232953
309.71  4.6708441
308.71  5.7397251
307.71  4.777731
306.71  4.6876618
305.71  4.3377601
304.71  4.25947
303.71  4.6120951
302.71  5.1346788
301.71  5.1533415
300.71  4.6242678
299.71  4.7267336
298.71  4.2782072
297.71  4.7606583
296.71  4.3607421
295.71  4.5461008
294.71  5.7794556
293.71  6.8578095
292.71  4.1264862
291.71  4.5637909
290.71  5.1471101
289.71  4.6906447
288.71  5.2823447
287.71  5.4182302
286.71  6.5677237
285.71  9.0194903
284.71  9.1421139
283.71  5.9205515
282.71  4.4264123
281.71  3.9218262
280.71  5.058467
279.71  5.4458542
278.71  4.6922457
277.71  5.6439233
276.71  5.8826217
275.71  4.9171538
274.71  4.812386
273.71  4.8752372
272.71  5.7633268
271.71  4.4428751
270.71  4.5299822
269.71  4.9720987
268.71  4.7663109
267.71  5.3422126
266.71  5.0894381
265.71  4.824932
264.71  5.2794667
263.71  6.603492
262.71  6.3007945
261.71  5.2717322
260.71  5.457493
259.71  5.3770881
258.71  5.4067934
257.71  5.1212864
256.71  5.2582423
255.71  4.5311184
254.71  4.5771633
253.71  4.9206922
252.71  5.6408388
251.71  4.4635222
250.71  5.3690663
249.71  5.2787353
248.71  5.2849265
247.71  5.13421
246.71  4.4301875
245.71  5.3281614
244.71  5.6831781
243.71  6.3621397
242.71  5.8374436
241.71  5.7649176
240.71  5.4995602
239.71  5.4956053
238.71  4.6887533
237.71  6.1176431
236.71  4.5136816
235.71  5.445232
234.71  5.5849723
233.71  5.5684394
232.71  5.1790011
231.71  6.6787151
230.71  5.7976278
229.71  5.2064399
228.71  5.7356103
227.71  5.0785271
226.71  5.412532
225.71  6.5722544
224.71  5.1414127
223.71  5.3935072
222.71  5.7815517
221.71  5.634179
220.71  5.2246396
219.71  5.7507969
218.71  4.8411825
217.71  4.7309251
216.71  5.6820829
215.71  5.0001024
214.71  5.2465456
213.71  5.561195
212.71  5.9189995
211.71  7.9234341
210.71  7.2926214
209.71  5.3442418
208.71  4.854546
207.71  5.0094653
206.71  5.2740996
205.71  5.1731048
204.71  6.4737633
203.71  5.4650337
202.71  6.0025655
201.71  6.8106241
200.71  6.278705
199.71  6.2110225
198.71  6.1037645
197.71  6.5766305
196.71  6.304554
195.71  6.8716666
194.71  6.4946254
193.71  6.6965439
192.71  5.9972192
191.71  6.4927276
190.71  6.2668306
189.71  6.0016702
188.71  6.0233346
187.71  6.0309312
186.71  5.7593838
185.71  5.8299538
184.71  6.5972565
183.71  6.1586014
182.71  5.5419127
181.71  5.6507417
180.71  6.1183137
179.71  5.9688928
178.71  6.5673125
177.71  5.4391708
176.71  5.5436672
175.71  6.4746101
174.71  6.3383317
173.71  6.5853156
172.71  6.8472393
171.71  7.0548
170.71  6.5334556
169.71  6.3550402
168.71  5.8040583
167.71  7.0221973
166.71  6.5460786
165.71  6.2510606
164.71  6.8980315
163.71  6.8612994
162.71  6.5769357
161.71  6.6355606
160.71  8.0147782
159.71  6.5307259
158.71  6.3919198
157.71  7.4222034
156.71  7.1212559
155.71  8.0847965
154.71  6.6972241
153.71  7.1703353
152.71  7.4012884
151.71  7.9018184
150.71  7.0664395
149.71  7.3075148
148.71  7.6442859
147.71  6.6146587
146.71  7.6367634
145.71  8.2943038
144.71  8.4273773
143.71  7.3214311
142.71  7.6188309
141.71  7.6631409
140.71  7.7327093
139.71  7.5300028
138.71  8.3492946
137.71  7.3197109
136.71  7.8574153
135.71  8.5878509
134.71  8.037513
133.71  8.0080396
132.71  8.2056309
131.71  7.1216108
130.71  7.0117466
129.71  6.314666
128.71  8.2984243
127.71  6.4842306
126.71  8.5957641
125.71  9.5893677
124.71  11.867895
123.71  16.211031
122.71  17.200795
121.71  12.582512
120.71  8.8235059
119.71  8.5579832
118.71  8.4831178
117.71  7.5201845
116.71  7.2386121
115.71  6.782291
114.71  6.4116322
113.71  6.5039165
112.71  6.0971677
111.71  5.2943456
110.71  6.5391563
109.71  7.3459591
108.71  7.836955
107.71  7.3905987
106.71  8.5363483
105.71  8.5685308
104.71  7.81933
103.71  8.8940695
102.71  7.5026001
101.71  7.284403
100.71  8.229381
99.71  8.1416178
98.71  9.1595223
97.71  8.233821
96.71  7.8532041
95.71  8.1250161
94.71  8.3162439
93.71  7.8040656
92.71  8.079422
91.71  8.7034395
90.71  7.9519649
89.71  7.2446566
88.71  6.3121561
87.71  7.8933774
86.71  6.732914
85.71  5.9300646
84.71  6.3778952
83.71  7.2399668
82.71  7.4718912
81.71  8.3792874
80.71  8.3484515
79.71  11.721731
78.71  19.070991
77.71  23.729549
76.71  25.440542
75.71  30.917109
74.71  19.496909
73.71  8.8754373
72.71  4.9604263
71.71  4.0455682
70.71  2.6968117
69.71  2.4809533
68.71  2.7024546
67.71  2.1453079
66.71  2.1879722
65.71  1.8607155
64.71  2.0867709
63.71  1.8134423
62.71  1.5273609
61.71  1.953162
60.71  2.0106061
59.71  2.4054337
58.71  2.2310404
57.71  1.8686231
56.71  1.4270792
55.71  1.5333943
54.71  1.6010614
53.71  1.8325357
52.71  1.7834661
51.71  2.2113897
50.71  2.2410082
49.71  2.131713
48.71  2.3358263
47.71  1.9279931
46.71  1.7615004
45.71  2.3727446
44.71  1.8581655
43.71  1.8065684
42.71  1.9281082
41.71  1.7836067
40.71  2.1568447
39.71  2.3841461
38.71  2.0110848
37.71  2.3228595
36.71  1.9797085
35.71  2.5149941
34.71  1.7771218
33.71  2.154414
32.71  2.5071597
31.71  1.5275047
30.71  2.6282872
29.71  2.7814631
28.71  2.0713712
27.71  2.2049199
26.71  2.7578383
25.71  2.7398809
24.71  2.1394051
23.71  2.463084
22.71  2.0363448
21.71  2.7003705
20.71  2.856669
19.71  2.6647763
18.71  2.6083012
17.71  2.6400561
16.71  2.4760241
15.71  2.1640217
14.71  1.9327542
13.71  1.5565246
12.71  2.0333914
11.71  1.6541776
10.71  1.5340613
9.71  1.9237707
8.71  1.819874
7.71  2.3357038
6.71  3.482613
5.71  5.8975435
4.71  9.0760402
3.71  12.922164
2.71  9.0268501
1.71  1.5788717
0.71  1.0077281
-0.29  0.48666132
-1.29  0.3954795
-2.29  0.37566841
-3.29  0.36970237

# Region:            C_1s(2)
# Spectrum ID:       4
# Acquisition Date:  06/30/22 14:11:47 UTC
# Analysis Method:   XPS
# Analyzer:          Analyzer
# Analyzer Lens:     LargeArea:1.5kV
# Analyzer Slit:     4:3x20\B:open
# Scan Mode:         FixedAnalyzerTransmission
# Curves/Scan:       1
# Values/Curve:      81
# Dwell Time:        0.5
# Excitation Energy: 1486.71
# Binding Energy:    299.71
# Pass Energy:       30
# Bias Voltage:      -1
# Detector Voltage:  1800
# Eff. Workfunction: 4.498
# Source:            XR 50 MF (UXC1000)
# Comment:
# OrdinateRange:     [-18.000000, 18.000000]
#
# Cycle: 0
# Number of Scans: 1
#
# Cycle: 0, Curve: 0
# Acquisition Date: 06/30/22 14:11:47 UTC
#
# ColumnLabels: energy counts/s
#
299.71  3.260355
299.51  3.2552207
299.31  3.3201029
299.11  3.0538896
298.91  3.1735447
298.71  3.1025906
298.51  3.3406496
298.31  3.3618899
298.11  3.1220057
297.91  3.1739005
297.71  3.213447
297.51  3.2502343
297.31  3.6023108
297.11  3.2416313
296.91  3.1576715
296.71  3.3301285
296.51  3.1991817
296.31  3.3433093
296.11  3.1760625
295.91  3.7112755
295.71  3.1587455
295.51  3.225984
295.31  2.9827052
295.11  3.1129563
294.91  3.2310667
294.71  3.0505535
294.51  3.6107851
294.31  3.9212293
294.11  3.3795696
293.91  3.0509017
293.71  2.9945219
293.51  3.2871354
293.31  3.5049007
293.11  3.3101021
292.91  3.3378754
292.71  3.4174838
292.51  3.4502489
292.31  3.3028519
292.11  3.4497934
291.91  3.6615389
291.71  4.0357782
291.51  4.1646876
291.31  3.6763547
291.11  3.5600349
290.91  3.2077634
290.71  3.6466311
290.51  3.8686011
290.31  3.7934742
290.11  3.7628562
289.91  3.7649466
289.71  3.3126129
289.51  3.4427992
289.31  3.5751003
289.11  3.6424435
288.91  3.6790788
288.71  3.5043585
288.51  3.6402067
288.31  3.7960259
288.11  3.8091496
287.91  3.7527828
287.71  4.3888337
287.51  4.7246014
287.31  4.8148217
287.11  4.6416647
286.91  4.8824579
286.71  4.9075529
286.51  5.4901605
286.31  5.3505396
286.11  6.2836004
285.91  6.7952666
285.71  7.5250357
285.51  8.2955124
285.31  8.7515541
285.11  8.6718271
284.91  7.4018549
284.71  6.522585
284.51  5.3267798
284.31  4.7909602
284.11  4.1446161
283.91  3.6563481
283.71  3.9611351

# Region:            Si_2p
# Spectrum ID:       5
# Acquisition Date:  06/30/22 14:30:11 UTC
# Analysis Method:   XPS
# Analyzer:          Analyzer
# Analyzer Lens:     LargeArea:1.5kV
# Analyzer Slit:     4:3x20\B:open
# Scan Mode:         FixedAnalyzerTransmission
# Curves/Scan:       1
# Values/Curve:      101
# Dwell Time:        0.5
# Excitation Energy: 1486.71
# Binding Energy:    106.71
# Pass Energy:       30
# Bias Voltage:      -1
# Detector Voltage:  1800
# Eff. Workfunction: 4.498
# Source:            XR 50 MF (UXC1000)
# Comment:
# OrdinateRange:     [-18.000000, 18.000000]
#
# Cycle: 0
# Number of Scans: 3
#
# Cycle: 0, Curve: 0
# Acquisition Date: 06/30/22 14:30:11 UTC
#
# ColumnLabels: energy counts/s
#
106.71  5.2266839
106.51  5.0021384
106.31  5.1547691
106.11  5.2983412
105.91  5.0613987
105.71  4.9569421
105.51  5.3847755
105.31  5.3983646
105.11  4.9858805
104.91  5.3122707
104.71  5.5085598
104.51  5.2888694
104.31  5.1974892
104.11  5.3543346
103.91  5.409617
103.71  5.4650787
103.51  5.3018187
103.31  5.126568
103.11  5.0751761
102.91  5.4815561
102.71  5.5106451
102.51  5.2546132
102.31  5.4480787
102.11  5.4436444
101.91  5.3639445
101.71  5.2642937
101.51  5.1519887
101.31  5.127554
101.11  5.2753336
100.91  5.4590804
100.71  5.1719892
100.51  5.5797898
100.31  5.7390158
100.11  5.6633239
99.91  5.362854
99.71  5.436293
99.51  5.4127747
99.31  5.5586916
99.11  5.2719398
98.91  5.5407549
98.71  5.4473569
98.51  5.4527762
98.31  5.2553455
98.11  5.400745
97.91  5.6362888
97.71  5.7360524
97.51  5.4819771
97.31  5.5802278
97.11  5.5948573
96.91  5.7037273
96.71  5.5565112
96.51  5.6424266
96.31  5.6691029
96.11  5.6935378
95.91  5.8345448
95.71  5.6255112
95.51  5.7347132
95.31  5.6282204
95.11  5.2179604
94.91  5.5411044
94.71  5.5807652
94.51  5.3847353
94.31  5.2043527
94.11  5.2947077
93.91  5.0614033
93.71  5.4164873
93.51  5.281825
93.31  5.3944269
93.11  5.3160285
92.91  5.2757
92.71  5.2368221
92.51  5.0956799
92.31  5.2737162
92.11  5.0255354
91.91  4.8755026
91.71  4.9917048
91.51  5.2110566
91.31  5.0788657
91.11  4.8924187
90.91  4.6672637
90.71  4.8175451
90.51  4.9214558
90.31  4.8248905
90.11  4.8221486
89.91  4.8383405
89.71  4.9597373
89.51  5.2952695
89.31  4.8107301
89.11  4.831061
88.91  4.9513446
88.71  4.953788
88.51  4.8480949
88.31  4.5716475
88.11  4.7297901
87.91  4.9783655
87.71  4.7769404
87.51  4.8628892
87.31  4.5360957
87.11  4.7062245
86.91  4.626066
86.71  4.5972918

# Region:            Na_1s
# Spectrum ID:       6
# Acquisition Date:  06/30/22 14:54:30 UTC
# Analysis Method:   XPS
# Analyzer:          Analyzer
# Analyzer Lens:     LargeArea:1.5kV
# Analyzer Slit:     4:3x20\B:open
# Scan Mode:         FixedAnalyzerTransmission
# Curves/Scan:       1
# Values/Curve:      130
# Dwell Time:        0.5
# Excitation Energy: 1486.71
# Binding Energy:    1086.71
# Pass Energy:       30
# Bias Voltage:      -1
# Detector Voltage:  1800
# Eff. Workfunction: 4.498
# Source:            XR 50 MF (UXC1000)
# Comment:
# OrdinateRange:     [-18.000000, 18.000000]
#
# Cycle: 0
# Number of Scans: 4
#
# Cycle: 0, Curve: 0
# Acquisition Date: 06/30/22 14:54:30 UTC
#
# ColumnLabels: energy counts/s
#
1086.71  75.642577
1086.5107  76.486957
1086.3114  75.425254
1086.1121  75.92602
1085.9128  77.039189
1085.7135  77.075875
1085.5142  75.806163
1085.3149  76.868225
1085.1156  75.93966
1084.9163  75.653673
1084.717  75.952226
1084.5177  76.599504
1084.3184  75.620617
1084.1191  76.726865
1083.9198  77.175147
1083.7205  74.811911
1083.5212  73.979824
1083.3219  75.344466
1083.1226  75.560003
1082.9233  75.801849
1082.724  77.269129
1082.5247  76.192129
1082.3253  76.062462
1082.126  76.206195
1081.9267  76.61238
1081.7274  77.387325
1081.5281  77.838666
1081.3288  76.925342
1081.1295  75.489052
1080.9302  76.565821
1080.7309  75.709059
1080.5316  75.869482
1080.3323  75.22494
1080.133  77.201551
1079.9337  76.698752
1079.7344  76.227885
1079.5351  76.617123
1079.3358  76.801215
1079.1365  76.430497
1078.9372  76.507021
1078.7379  77.314211
1078.5386  77.189906
1078.3393  76.823417
1078.14  76.903663
1077.9407  75.636999
1077.7414  77.012326
1077.5421  78.054182
1077.3428  78.701475
1077.1435  77.577713
1076.9442  77.636587
1076.7449  77.254184
1076.5456  75.907315
1076.3463  75.52852
1076.147  76.787947
1075.9477  76.026791
1075.7484  76.781222
1075.5491  77.12539
1075.3498  75.329415
1075.1505  76.600038
1074.9512  75.877551
1074.7519  76.430021
1074.5526  75.44091
1074.3533  77.223483
1074.154  78.252035
1073.9547  77.238199
1073.7553  76.510269
1073.556  76.273419
1073.3567  76.325824
1073.1574  76.925249
1072.9581  77.69246
1072.7588  77.018575
1072.5595  76.951748
1072.3602  76.013349
1072.1609  77.416128
1071.9616  76.893884
1071.7623  76.061853
1071.563  76.597869
1071.3637  77.368165
1071.1644  76.817737
1070.9651  76.831762
1070.7658  76.989943
1070.5665  77.242156
1070.3672  78.276695
1070.1679  77.82227
1069.9686  77.387705
1069.7693  77.972557
1069.57  77.903763
1069.3707  78.466596
1069.1714  78.05144
1068.9721  78.213578
1068.7728  76.931864
1068.5735  78.871886
1068.3742  77.520175
1068.1749  77.792784
1067.9756  78.695607
1067.7763  77.37618
1067.577  78.288997
1067.3777  78.110788
1067.1784  77.474815
1066.9791  78.078415
1066.7798  78.164183
1066.5805  77.679962
1066.3812  78.034288
1066.1819  78.51865
1065.9826  77.605038
1065.7833  76.896117
1065.584  77.032885
1065.3847  76.453908
1065.1853  77.774187
1064.986  79.833205
1064.7867  79.172348
1064.5874  78.742346
1064.3881  76.449989
1064.1888  76.931684
1063.9895  77.943441
1063.7902  79.426357
1063.5909  78.694789
1063.3916  77.979917
1063.1923  79.37721
1062.993  78.222025
1062.7937  78.350789
1062.5944  78.331102
1062.3951  78.95737
1062.1958  79.64983
1061.9965  79.088922
1061.7972  79.091674
1061.5979  77.520835
1061.3986  77.296313
1061.1993  78.414177
1061  79.180047

# Region:            F_1s
# Spectrum ID:       7
# Acquisition Date:  06/30/22 14:55:42 UTC
# Analysis Method:   XPS
# Analyzer:          Analyzer
# Analyzer Lens:     LargeArea:1.5kV
# Analyzer Slit:     4:3x20\B:open
# Scan Mode:         FixedAnalyzerTransmission
# Curves/Scan:       1
# Values/Curve:      115
# Dwell Time:        0.5
# Excitation Energy: 1486.71
# Binding Energy:    696.71
# Pass Energy:       30
# Bias Voltage:      -1
# Detector Voltage:  1800
# Eff. Workfunction: 4.498
# Source:            XR 50 MF (UXC1000)
# Comment:
# OrdinateRange:     [-18.000000, 18.000000]
#
# Cycle: 0
# Number of Scans: 4
#
# Cycle: 0, Curve: 0
# Acquisition Date: 06/30/22 14:55:42 UTC
#
# ColumnLabels: energy counts/s
#
696.71  32.70344
696.51079  32.415608
696.31158  32.83964
696.11237  32.481751
695.91316  33.178697
695.71395  33.171431
695.51474  32.194269
695.31553  32.147628
695.11632  32.806792
694.91711  32.624758
694.71789  32.660698
694.51868  32.389524
694.31947  32.898363
694.12026  31.941133
693.92105  32.096119
693.72184  33.250726
693.52263  33.36149
693.32342  33.234006
693.12421  32.656092
692.925  32.530956
692.72579  33.066972
692.52658  33.682291
692.32737  33.131889
692.12816  32.605411
691.92895  32.427044
691.72974  32.56458
691.53053  32.460348
691.33132  33.02493
691.13211  32.446262
690.93289  32.777759
690.73368  32.298502
690.53447  32.72683
690.33526  32.119661
690.13605  31.884726
689.93684  32.562217
689.73763  33.261421
689.53842  32.753977
689.33921  32.320522
689.14  33.091719
688.94079  32.608773
688.74158  32.546536
688.54237  32.817432
688.34316  33.537027
688.14395  33.161182
687.94474  32.936703
687.74553  31.726302
687.54632  32.049564
687.34711  32.225606
687.14789  31.541655
686.94868  31.345377
686.74947  30.557401
686.55026  31.332
686.35105  30.739909
686.15184  30.905146
685.95263  30.888594
685.75342  31.505664
685.55421  32.226953
685.355  31.701325
685.15579  30.788818
684.95658  32.090987
684.75737  30.997216
684.55816  30.823644
684.35895  31.286602
684.15974  31.985673
683.96053  30.971435
683.76132  30.666251
683.56211  30.203265
683.36289  31.09639
683.16368  30.9048
682.96447  31.010939
682.76526  30.621011
682.56605  30.641216
682.36684  31.04055
682.16763  31.118256
681.96842  30.647054
681.76921  30.773023
681.57  31.464264
681.37079  31.305611
681.17158  30.83561
680.97237  31.443848
680.77316  30.973685
680.57395  31.029748
680.37474  31.000981
680.17553  31.000718
679.97632  31.447424
679.77711  31.205133
679.57789  31.142728
679.37868  30.917912
679.17947  31.229312
678.98026  32.111239
678.78105  31.357247
678.58184  31.167031
678.38263  31.521324
678.18342  31.922218
677.98421  31.732103
677.785  31.689727
677.58579  31.711959
677.38658  32.133617
677.18737  32.053204
676.98816  31.744575
676.78895  32.053677
676.58974  32.147269
676.39053  32.379851
676.19132  31.773563
675.99211  32.071824
675.79289  32.147498
675.59368  32.200323
675.39447  32.081729
675.19526  33.423676
674.99605  31.90661
674.79684  31.920481
674.59763  32.119971
674.39842  32.578123
674.19921  32.194659
674  32.778821

# Region:            Ba_3d5/2
# Spectrum ID:       8
# Acquisition Date:  06/30/22 14:57:15 UTC
# Analysis Method:   XPS
# Analyzer:          Analyzer
# Analyzer Lens:     LargeArea:1.5kV
# Analyzer Slit:     4:3x20\B:open
# Scan Mode:         FixedAnalyzerTransmission
# Curves/Scan:       1
# Values/Curve:      156
# Dwell Time:        0.5
# Excitation Energy: 1486.71
# Binding Energy:    801
# Pass Energy:       30
# Bias Voltage:      -1
# Detector Voltage:  1800
# Eff. Workfunction: 4.498
# Source:            XR 50 MF (UXC1000)
# Comment:
# OrdinateRange:     [-18.000000, 18.000000]
#
# Cycle: 0
# Number of Scans: 4
#
# Cycle: 0, Curve: 0
# Acquisition Date: 06/30/22 14:57:15 UTC
#
# ColumnLabels: energy counts/s
#
801  35.713845
800.8  35.67838
800.6  36.12637
800.4  35.52341
800.2  34.780473
800  36.116692
799.8  35.448114
799.6  35.824523
799.4  36.141457
799.2  35.616005
799  35.691358
798.8  36.029856
798.6  35.963775
798.4  36.118359
798.2  36.451398
798  36.104079
797.8  35.826885
797.6  36.233383
797.4  36.251572
797.2  36.337541
797  36.529669
796.8  36.207027
796.6  36.909317
796.4  37.120927
796.2  36.446882
796  36.749744
795.8  35.820269
795.6  36.761453
795.4  36.622033
795.2  36.690707
795  36.55883
794.8  36.914198
794.6  37.22202
794.4  36.351835
794.2  37.194714
794  36.16583
793.8  37.551772
793.6  37.347929
793.4  37.076047
793.2  36.452886
793  36.778063
792.8  37.16134
792.6  37.062916
792.4  37.20179
792.2  36.528837
792  36.544601
791.8  36.915019
791.6  36.842535
791.4  37.424135
791.2  37.247487
791  37.5034
790.8  37.332161
790.6  37.414625
790.4  37.183963
790.2  37.387614
790  37.6318
789.8  37.647738
789.6  37.83806
789.4  37.51676
789.2  36.822547
789  37.438658
788.8  37.653444
788.6  38.190175
788.4  37.24103
788.2  37.327467
788  37.488482
787.8  37.598128
787.6  37.216922
787.4  37.633432
787.2  38.416507
787  37.965995
786.8  37.191259
786.6  38.094051
786.4  38.012667
786.2  38.088962
786  38.119028
785.8  37.736331
785.6  37.982183
785.4  38.662972
785.2  38.112242
785  38.566128
784.8  38.888323
784.6  38.423345
784.4  38.485072
784.2  37.439957
784  38.806178
783.8  39.174134
783.6  38.416377
783.4  38.985694
783.2  39.669342
783  38.890401
782.8  38.722312
782.6  39.180441
782.4  38.854421
782.2  38.649358
782  38.726259
781.8  39.610961
781.6  39.208334
781.4  39.55406
781.2  39.673643
781  39.788619
780.8  40.241739
780.6  39.378584
780.4  40.18992
780.2  40.330967
780  39.39922
779.8  39.598476
779.6  40.023259
779.4  40.034577
779.2  39.320588
779  39.392448
778.8  40.252976
778.6  40.471684
778.4  40.056865
778.2  40.128855
778  41.032691
777.8  41.333864
777.6  41.11235
777.4  40.562909
777.2  40.869213
777  39.993699
776.8  41.109719
776.6  40.792273
776.4  41.013504
776.2  41.294097
776  41.672203
775.8  41.184203
775.6  41.396427
775.4  41.175553
775.2  40.780188
775  41.120495
774.8  40.878967
774.6  40.269077
774.4  41.529756
774.2  41.023855
774  40.800979
773.8  40.403728
773.6  41.013205
773.4  40.693657
773.2  40.671023
773  41.561349
772.8  42.072491
772.6  40.909363
772.4  40.21409
772.2  39.99635
772  40.857073
771.8  42.281287
771.6  42.442728
771.4  42.008944
771.2  42.066478
771  42.514597
770.8  41.940192
770.6  41.876976
770.4  42.664307
770.2  42.340391
770  42.626016

# Region:            O_1s
# Spectrum ID:       9
# Acquisition Date:  06/30/22 14:35:12 UTC
# Analysis Method:   XPS
# Analyzer:          Analyzer
# Analyzer Lens:     LargeArea:1.5kV
# Analyzer Slit:     4:3x20\B:open
# Scan Mode:         FixedAnalyzerTransmission
# Curves/Scan:       1
# Values/Curve:      85
# Dwell Time:        0.5
# Excitation Energy: 1486.71
# Binding Energy:    541.71
# Pass Energy:       30
# Bias Voltage:      -1
# Detector Voltage:  1800
# Eff. Workfunction: 4.498
# Source:            XR 50 MF (UXC1000)
# Comment:
# OrdinateRange:     [-18.000000, 18.000000]
#
# Cycle: 0
# Number of Scans: 3
#
# Cycle: 0, Curve: 0
# Acquisition Date: 06/30/22 14:35:12 UTC
#
# ColumnLabels: energy counts/s
#
541.71  3.3276013
541.51107  3.3804384
541.31214  3.4712602
541.11321  3.5105712
540.91429  3.4964896
540.71536  3.4483043
540.51643  3.4669464
540.3175  3.2543376
540.11857  3.4748124
539.91964  3.0948628
539.72071  3.2077754
539.52179  3.1509486
539.32286  3.0631521
539.12393  3.1175463
538.925  2.9181766
538.72607  3.0573889
538.52714  2.9839698
538.32821  3.1772403
538.12929  2.9362166
537.93036  2.9677702
537.73143  2.9066229
537.5325  3.1373113
537.33357  3.2480504
537.13464  3.0512207
536.93571  2.938942
536.73679  2.8919497
536.53786  2.9103247
536.33893  2.9750305
536.14  2.9321027
535.94107  2.8576634
535.74214  2.9560205
535.54321  2.8170726
535.34429  2.8890075
535.14536  3.0980241
534.94643  3.0545424
534.7475  3.0174982
534.54857  2.8746513
534.34964  3.1543621
534.15071  3.2157185
533.95179  3.4094086
533.75286  3.7442883
533.55393  3.9635993
533.355  4.0024247
533.15607  3.8481098
532.95714  3.9384938
532.75821  4.0754008
532.55929  3.9825894
532.36036  3.9755036
532.16143  4.0852097
531.9625  4.0223852
531.76357  3.9449271
531.56464  4.058816
531.36571  3.893391
531.16679  3.7048135
530.96786  3.1803776
530.76893  3.2345258
530.57  3.0327821
530.37107  2.8230661
530.17214  2.9158797
529.97321  2.8042616
529.77429  2.9998454
529.57536  2.8893938
529.37643  2.9142687
529.1775  2.6269304
528.97857  2.6380863
528.77964  2.800748
528.58071  2.6548559
528.38179  2.5931749
528.18286  2.5302439
527.98393  2.676292
527.785  2.6946858
527.58607  2.6771119
527.38714  2.663025
527.18821  2.8294262
526.98929  2.7534856
526.79036  2.7512116
526.59143  2.4640941
526.3925  2.635899
526.19357  2.6378341
525.99464  2.5261377
525.79571  2.6045145
525.59679  2.6673914
525.39786  2.8032916
525.19893  2.811841
525  2.6864991

# Region:            N_1s
# Spectrum ID:       10
# Acquisition Date:  06/30/22 14:36:10 UTC
# Analysis Method:   XPS
# Analyzer:          Analyzer
# Analyzer Lens:     LargeArea:1.5kV
# Analyzer Slit:     4:3x20\B:open
# Scan Mode:         FixedAnalyzerTransmission
# Curves/Scan:       1
# Values/Curve:      90
# Dwell Time:        0.5
# Excitation Energy: 1486.71
# Binding Energy:    412
# Pass Energy:       30
# Bias Voltage:      -1
# Detector Voltage:  1800
# Eff. Workfunction: 4.498
# Source:            XR 50 MF (UXC1000)
# Comment:
# OrdinateRange:     [-18.000000, 18.000000]
#
# Cycle: 0
# Number of Scans: 3
#
# Cycle: 0, Curve: 0
# Acquisition Date: 06/30/22 14:36:10 UTC
#
# ColumnLabels: energy counts/s
#
412  2.893532
411.80899  2.9751339
411.61798  3.0706298
411.42697  3.0922969
411.23596  3.0098286
411.04494  2.9239293
410.85393  3.0118952
410.66292  3.0209739
410.47191  3.0753612
410.2809  2.8030968
410.08989  2.8552218
409.89888  3.0248189
409.70787  2.9702391
409.51685  2.9945922
409.32584  3.0403968
409.13483  2.9964008
408.94382  2.9387158
408.75281  2.8414546
408.5618  3.0434482
408.37079  2.8723055
408.17978  2.9498024
407.98876  3.0449247
407.79775  2.8267947
407.60674  3.0299577
407.41573  3.0850544
407.22472  2.8798735
407.03371  3.0586676
406.8427  2.8018236
406.65169  2.9518715
406.46067  2.7898003
406.26966  3.0368392
406.07865  2.8854039
405.88764  3.0679766
405.69663  2.9795367
405.50562  3.0596006
405.31461  3.1320418
405.1236  3.064788
404.93258  2.9587772
404.74157  3.1002434
404.55056  3.0979247
404.35955  3.0900625
404.16854  3.0796451
403.97753  3.1586614
403.78652  2.996959
403.59551  3.154888
403.40449  3.4230514
403.21348  3.187582
403.02247  3.0538604
402.83146  3.0606496
402.64045  3.2087245
402.44944  3.0358371
402.25843  3.0126251
402.06742  3.201845
401.8764  3.3241547
401.68539  3.0935236
401.49438  3.1054317
401.30337  3.4436322
401.11236  3.4350417
400.92135  3.505606
400.73034  3.6304566
400.53933  3.7837307
400.34831  3.7231105
400.1573  3.6713667
399.96629  3.6088771
399.77528  3.5515193
399.58427  3.394258
399.39326  3.1796978
399.20225  3.2379373
399.01124  3.0616889
398.82022  3.2963478
398.62921  3.1252437
398.4382  3.037702
398.24719  2.9098352
398.05618  2.9699441
397.86517  2.9950249
397.67416  3.070286
397.48315  3.0062623
397.29213  3.1514408
397.10112  2.9172272
396.91011  2.7119859
396.7191  2.8670393
396.52809  2.9963205
396.33708  3.0600861
396.14607  3.0023858
395.95506  2.867511
395.76404  2.9285655
395.57303  2.935551
395.38202  3.0608488
395.19101  2.9885891
395  2.9759891

# Region:            Si_2s
# Spectrum ID:       12
# Acquisition Date:  06/30/22 14:36:49 UTC
# Analysis Method:   XPS
# Analyzer:          Analyzer
# Analyzer Lens:     LargeArea:1.5kV
# Analyzer Slit:     4:3x20\B:open
# Scan Mode:         FixedAnalyzerTransmission
# Curves/Scan:       1
# Values/Curve:      54
# Dwell Time:        0.5
# Excitation Energy: 1486.71
# Binding Energy:    160
# Pass Energy:       30
# Bias Voltage:      -1
# Detector Voltage:  1800
# Eff. Workfunction: 4.498
# Source:            XR 50 MF (UXC1000)
# Comment:
# OrdinateRange:     [-18.000000, 18.000000]
#
# Cycle: 0
# Number of Scans: 3
#
# Cycle: 0, Curve: 0
# Acquisition Date: 06/30/22 14:36:49 UTC
#
# ColumnLabels: energy counts/s
#
160  4.7367402
159.81132  4.8327393
159.62264  4.929911
159.43396  4.8663567
159.24528  4.5720754
159.0566  4.8450451
158.86792  4.5944113
158.67925  4.5237414
158.49057  4.6827268
158.30189  4.733501
158.11321  4.640191
157.92453  4.7770019
157.73585  4.8752657
157.54717  4.5328625
157.35849  4.64735
157.16981  4.6633158
156.98113  4.6732685
156.79245  4.9149359
156.60377  4.782707
156.41509  4.984828
156.22642  4.8384253
156.03774  4.8203586
155.84906  4.7047012
155.66038  4.8440401
155.4717  4.9235138
155.28302  4.7530141
155.09434  4.9352951
154.90566  5.0253429
154.71698  5.092376
154.5283  4.7534052
154.33962  4.9713232
154.15094  4.8339483
153.96226  4.7921349
153.77358  4.694428
153.58491  4.9388834
153.39623  5.1776525
153.20755  5.4544865
153.01887  5.0813683
152.83019  4.8567053
152.64151  5.0105043
152.45283  5.1761282
152.26415  4.9203714
152.07547  4.8692177
151.88679  5.007897
151.69811  4.8263498
151.50943  5.2729514
151.32075  5.1339786
151.13208  5.0581301
150.9434  4.9942568
150.75472  5.1361475
150.56604  5.0013976
150.37736  5.3471033
150.18868  4.908384
150  5.0564995

# Region:            survey_(2)
# Spectrum ID:       2
# Acquisition Date:  06/30/22 14:10:23 UTC
# Analysis Method:   XPS
# Analyzer:          Analyzer
# Analyzer Lens:     MediumArea:1.5kV
# Analyzer Slit:     4:3x20\B:open
# Scan Mode:         FixedAnalyzerTransmission
# Curves/Scan:       1
# Values/Curve:      1405
# Dwell Time:        0.1
# Excitation Energy: 1486.71
# Binding Energy:    1400
# Pass Energy:       50
# Bias Voltage:      -1
# Detector Voltage:  1800
# Eff. Workfunction: 4.498
# Source:            XR 50 MF (UXC1000)
# Comment:
# OrdinateRange:     [-7.000000, 7.000000]
#
# Cycle: 0
# Number of Scans: 1
#
# Cycle: 0, Curve: 0
# Acquisition Date: 06/30/22 14:10:23 UTC
#
# ColumnLabels: energy counts/s
#
1400  84.598107
1399.0005  74.941307
1398.001  73.501878
1397.0015  72.873759
1396.002  69.456395
1395.0025  67.277294
1394.003  63.906229
1393.0035  65.030503
1392.004  63.71967
1391.0046  57.023707
1390.0051  52.09099
1389.0056  54.28199
1388.0061  57.547012
1387.0066  54.420696
1386.0071  50.370885
1385.0076  53.756883
1384.0081  49.945903
1383.0086  46.810748
1382.0091  48.14573
1381.0096  44.593412
1380.0101  45.336123
1379.0106  44.697047
1378.0111  44.336359
1377.0116  40.897368
1376.0121  44.908378
1375.0126  45.124111
1374.0131  40.607134
1373.0137  39.556442
1372.0142  40.140542
1371.0147  37.771665
1370.0152  39.646681
1369.0157  38.461172
1368.0162  33.962943
1367.0167  36.925984
1366.0172  37.27734
1365.0177  34.652581
1364.0182  36.318802
1363.0187  34.002172
1362.0192  36.513851
1361.0197  35.145672
1360.0202  35.694131
1359.0207  33.956127
1358.0212  34.554139
1357.0217  34.979626
1356.0223  33.553687
1355.0228  35.254906
1354.0233  34.77152
1353.0238  33.58716
1352.0243  35.752607
1351.0248  34.050193
1350.0253  35.624692
1349.0258  34.548259
1348.0263  35.749585
1347.0268  31.712132
1346.0273  32.88629
1345.0278  34.639417
1344.0283  33.882008
1343.0288  30.983016
1342.0293  33.289588
1341.0298  34.01128
1340.0303  33.709485
1339.0308  32.21993
1338.0314  33.075396
1337.0319  29.654832
1336.0324  33.598143
1335.0329  32.752829
1334.0334  33.745707
1333.0339  31.324009
1332.0344  34.841475
1331.0349  35.319059
1330.0354  32.864038
1329.0359  34.039654
1328.0364  32.411828
1327.0369  33.003766
1326.0374  31.797596
1325.0379  31.708713
1324.0384  35.713396
1323.0389  33.967368
1322.0394  36.485913
1321.04  38.151198
1320.0405  36.008397
1319.041  35.193551
1318.0415  34.28365
1317.042  35.490692
1316.0425  33.706752
1315.043  35.802092
1314.0435  36.440846
1313.044  34.444008
1312.0445  35.373494
1311.045  36.925758
1310.0455  34.007375
1309.046  33.832587
1308.0465  32.787111
1307.047  32.793445
1306.0475  34.64751
1305.048  32.745991
1304.0485  34.308859
1303.0491  37.868455
1302.0496  37.724293
1301.0501  34.277117
1300.0506  34.145715
1299.0511  31.791745
1298.0516  33.390667
1297.0521  35.22577
1296.0526  33.520644
1295.0531  30.623066
1294.0536  34.09269
1293.0541  33.53076
1292.0546  32.858006
1291.0551  32.335002
1290.0556  34.746134
1289.0561  33.417877
1288.0566  32.196165
1287.0571  33.131901
1286.0576  34.896115
1285.0582  32.90351
1284.0587  32.869344
1283.0592  30.484559
1282.0597  32.661568
1281.0602  32.557562
1280.0607  33.371747
1279.0612  33.276145
1278.0617  34.235492
1277.0622  33.275717
1276.0627  32.881764
1275.0632  32.353324
1274.0637  32.14554
1273.0642  33.68057
1272.0647  31.256684
1271.0652  32.521386
1270.0657  32.768575
1269.0662  30.895679
1268.0668  31.353079
1267.0673  30.930934
1266.0678  34.985422
1265.0683  33.478308
1264.0688  33.415301
1263.0693  31.198591
1262.0698  31.45032
1261.0703  32.367711
1260.0708  30.844948
1259.0713  32.471671
1258.0718  32.69431
1257.0723  32.212494
1256.0728  30.311725
1255.0733  32.790151
1254.0738  33.049755
1253.0743  32.445514
1252.0748  33.171858
1251.0753  33.350473
1250.0759  31.353424
1249.0764  30.921172
1248.0769  31.198462
1247.0774  31.671878
1246.0779  30.734979
1245.0784  32.659269
1244.0789  31.346019
1243.0794  31.451093
1242.0799  32.109149
1241.0804  30.749289
1240.0809  33.370574
1239.0814  32.529865
1238.0819  31.556774
1237.0824  31.406465
1236.0829  32.390367
1235.0834  32.974956
1234.0839  33.185156
1233.0845  32.74215
1232.085  28.687837
1231.0855  32.061928
1230.086  33.657851
1229.0865  31.1309
1228.087  32.422775
1227.0875  31.713797
1226.088  32.850062
1225.0885  33.383585
1224.089  29.871692
1223.0895  31.677548
1222.09  30.8101
1221.0905  31.778508
1220.091  31.9023
1219.0915  31.173966
1218.092  33.599693
1217.0925  29.280987
1216.093  30.350074
1215.0936  32.238307
1214.0941  30.954433
1213.0946  28.576708
1212.0951  30.06331
1211.0956  29.614304
1210.0961  29.53812
1209.0966  31.126519
1208.0971  30.566325
1207.0976  29.537609
1206.0981  31.007652
1205.0986  30.648446
1204.0991  28.393665
1203.0996  29.482529
1202.1001  31.076506
1201.1006  32.394839
1200.1011  31.125443
1199.1016  31.906436
1198.1022  31.774389
1197.1027  31.576557
1196.1032  31.084647
1195.1037  29.233324
1194.1042  30.516102
1193.1047  32.404089
1192.1052  30.072219
1191.1057  29.582684
1190.1062  29.713686
1189.1067  29.427653
1188.1072  29.502716
1187.1077  28.694781
1186.1082  30.851808
1185.1087  32.905467
1184.1092  30.91908
1183.1097  30.143073
1182.1102  31.864922
1181.1107  31.266676
1180.1113  32.065506
1179.1118  31.995494
1178.1123  31.971102
1177.1128  31.542029
1176.1133  32.642126
1175.1138  29.449435
1174.1143  27.941823
1173.1148  30.98454
1172.1153  30.400923
1171.1158  30.063294
1170.1163  29.308
1169.1168  30.624354
1168.1173  33.173373
1167.1178  31.775908
1166.1183  30.935507
1165.1188  32.344782
1164.1193  31.408585
1163.1199  32.53796
1162.1204  33.401385
1161.1209  31.570876
1160.1214  29.585055
1159.1219  32.030377
1158.1224  30.917667
1157.1229  32.224852
1156.1234  31.603184
1155.1239  28.652643
1154.1244  33.788641
1153.1249  31.143989
1152.1254  31.114791
1151.1259  32.299678
1150.1264  31.966726
1149.1269  32.017717
1148.1274  31.517427
1147.1279  31.095867
1146.1284  32.969389
1145.129  32.853849
1144.1295  33.528062
1143.13  30.059289
1142.1305  30.692881
1141.131  30.048299
1140.1315  33.196664
1139.132  33.626427
1138.1325  30.485589
1137.133  30.785783
1136.1335  34.623305
1135.134  32.789883
1134.1345  31.808044
1133.135  32.900467
1132.1355  34.369052
1131.136  33.163354
1130.1365  33.986988
1129.137  30.424583
1128.1375  33.494971
1127.1381  35.334629
1126.1386  34.297232
1125.1391  32.612178
1124.1396  32.746764
1123.1401  30.16896
1122.1406  33.882168
1121.1411  34.079316
1120.1416  32.145605
1119.1421  33.924994
1118.1426  33.15999
1117.1431  35.011007
1116.1436  34.819396
1115.1441  34.139998
1114.1446  33.507723
1113.1451  31.693787
1112.1456  32.873785
1111.1461  32.504567
1110.1467  32.941216
1109.1472  33.233429
1108.1477  33.155181
1107.1482  33.632785
1106.1487  35.281838
1105.1492  34.617606
1104.1497  35.059026
1103.1502  34.128013
1102.1507  34.668079
1101.1512  34.374297
1100.1517  34.192086
1099.1522  37.531447
1098.1527  40.587082
1097.1532  39.091632
1096.1537  39.842196
1095.1542  38.075357
1094.1547  32.560268
1093.1552  32.550399
1092.1558  35.006444
1091.1563  30.829187
1090.1568  30.159114
1089.1573  29.396676
1088.1578  28.581568
1087.1583  28.095702
1086.1588  28.095988
1085.1593  28.456497
1084.1598  29.512097
1083.1603  28.519062
1082.1608  28.803754
1081.1613  28.60207
1080.1618  29.332481
1079.1623  26.459191
1078.1628  29.507576
1077.1633  30.631444
1076.1638  30.320436
1075.1644  29.169165
1074.1649  27.905738
1073.1654  31.216069
1072.1659  28.844028
1071.1664  27.240011
1070.1669  29.747362
1069.1674  28.725741
1068.1679  28.99486
1067.1684  29.381964
1066.1689  31.402282
1065.1694  28.730725
1064.1699  28.309528
1063.1704  30.426417
1062.1709  31.098021
1061.1714  27.808322
1060.1719  31.5822
1059.1724  31.162643
1058.1729  30.601015
1057.1735  30.472413
1056.174  28.975926
1055.1745  31.030298
1054.175  27.680595
1053.1755  31.173913
1052.176  31.96741
1051.1765  31.000888
1050.177  33.503797
1049.1775  30.947333
1048.178  30.686307
1047.1785  33.006789
1046.179  31.076821
1045.1795  30.602679
1044.18  31.13324
1043.1805  31.511054
1042.181  29.077486
1041.1815  31.68537
1040.1821  31.314051
1039.1826  32.601368
1038.1831  29.520984
1037.1836  29.849001
1036.1841  30.387342
1035.1846  31.307015
1034.1851  28.984682
1033.1856  30.348341
1032.1861  34.777006
1031.1866  32.804844
1030.1871  30.263249
1029.1876  32.361071
1028.1881  32.239061
1027.1886  32.5476
1026.1891  35.959526
1025.1896  32.694387
1024.1901  31.194069
1023.1906  32.019593
1022.1912  31.810239
1021.1917  32.570024
1020.1922  33.995171
1019.1927  34.929798
1018.1932  35.596797
1017.1937  35.595128
1016.1942  34.350708
1015.1947  30.900264
1014.1952  35.29741
1013.1957  35.394986
1012.1962  32.83998
1011.1967  31.622496
1010.1972  33.691502
1009.1977  36.916857
1008.1982  35.58588
1007.1987  36.555487
1006.1992  37.743033
1005.1998  37.075739
1004.2003  36.302799
1003.2008  35.684197
1002.2013  36.059414
1001.2018  35.320187
1000.2023  33.091585
999.20278  35.408268
998.20329  36.45867
997.2038  38.47288
996.2043  38.980396
995.20481  37.014646
994.20531  40.301925
993.20582  37.685042
992.20632  37.265747
991.20683  39.046777
990.20734  38.953193
989.20784  38.512597
988.20835  44.084662
987.20885  40.977262
986.20936  38.164252
985.20986  39.868384
984.21037  42.342302
983.21088  43.236035
982.21138  42.193146
981.21189  41.976043
980.21239  42.210121
979.2129  38.446027
978.2134  38.947955
977.21391  46.436217
976.21442  45.403194
975.21492  46.670245
974.21543  45.369112
973.21593  44.054983
972.21644  45.19665
971.21694  44.267945
970.21745  41.824121
969.21796  42.958159
968.21846  45.31891
967.21897  44.343459
966.21947  46.826199
965.21998  44.550029
964.22048  43.762217
963.22099  43.625739
962.2215  41.426188
961.222  40.103385
960.22251  41.563436
959.22301  43.882608
958.22352  43.544662
957.22402  44.941534
956.22453  43.122144
955.22504  45.641534
954.22554  65.035549
953.22605  110.4017
952.22655  120.90997
951.22706  60.206034
950.22756  44.472132
949.22807  40.242586
948.22858  35.185496
947.22908  37.428421
946.22959  37.941225
945.23009  35.149073
944.2306  32.836996
943.2311  29.475247
942.23161  25.491993
941.23212  26.367859
940.23262  27.96744
939.23313  25.492911
938.23363  27.632764
937.23414  28.626581
936.23464  31.730952
935.23515  34.44525
934.23566  57.362413
933.23616  282.44374
932.23667  227.88001
931.23717  35.981445
930.23768  23.208469
929.23818  18.57963
928.23869  17.249841
927.2392  17.285207
926.2397  17.057318
925.24021  14.795442
924.24071  14.233456
923.24122  18.211974
922.24172  18.027107
921.24223  14.929622
920.24274  15.833339
919.24324  18.12278
918.24375  16.183
917.24425  17.269361
916.24476  18.075641
915.24526  16.545742
914.24577  15.296022
913.24627  14.939904
912.24678  14.494086
911.24729  17.710108
910.24779  17.302354
909.2483  16.567759
908.2488  16.231505
907.24931  18.284079
906.24981  16.954607
905.25032  17.931426
904.25083  17.763625
903.25133  15.696055
902.25184  16.706593
901.25234  15.791746
900.25285  17.043253
899.25335  19.357629
898.25386  17.536951
897.25437  16.885795
896.25487  16.93713
895.25538  18.240149
894.25588  19.897263
893.25639  17.882192
892.25689  17.423303
891.2574  16.929488
890.25791  17.249459
889.25841  18.23391
888.25892  19.388838
887.25942  19.814448
886.25993  17.278314
885.26043  17.19107
884.26094  19.613687
883.26145  18.736969
882.26195  18.157258
881.26246  18.23091
880.26296  18.328618
879.26347  18.235664
878.26397  18.128504
877.26448  20.341397
876.26499  20.52183
875.26549  19.452625
874.266  17.029373
873.2665  19.078451
872.26701  19.665035
871.26751  19.481553
870.26802  20.360308
869.26853  16.398835
868.26903  20.540365
867.26954  20.117043
866.27004  20.320651
865.27055  18.448546
864.27105  19.264016
863.27156  19.401919
862.27207  19.107685
861.27257  20.16266
860.27308  20.67939
859.27358  21.054042
858.27409  19.064756
857.27459  19.269078
856.2751  19.450902
855.27561  19.360762
854.27611  20.392857
853.27662  21.191684
852.27712  20.000594
851.27763  18.67154
850.27813  20.84316
849.27864  21.74087
848.27915  21.249378
847.27965  21.044191
846.28016  22.131311
845.28066  21.84531
844.28117  23.054534
843.28167  22.029659
842.28218  20.851387
841.28269  19.971921
840.28319  21.165471
839.2837  21.895497
838.2842  21.300017
837.28471  21.499883
836.28521  20.934664
835.28572  20.67545
834.28623  21.015766
833.28673  22.192083
832.28724  22.345847
831.28774  22.001166
830.28825  21.64805
829.28875  22.997136
828.28926  22.06059
827.28976  22.914339
826.29027  24.79262
825.29078  23.649465
824.29128  24.452762
823.29179  23.520554
822.29229  23.328005
821.2928  21.652556
820.2933  21.559169
819.29381  22.225129
818.29432  22.985655
817.29482  22.71642
816.29533  24.133031
815.29583  23.774012
814.29634  23.422231
813.29684  25.739139
812.29735  24.831612
811.29786  23.978944
810.29836  25.735557
809.29887  24.315718
808.29937  26.098703
807.29988  24.849446
806.30038  25.85197
805.30089  23.456261
804.3014  24.047817
803.3019  25.297831
802.30241  24.378744
801.30291  25.673458
800.30342  26.254749
799.30392  23.32224
798.30443  24.083952
797.30494  27.459672
796.30544  24.77888
795.30595  24.3462
794.30645  26.068054
793.30696  29.187901
792.30746  26.262238
791.30797  24.851917
790.30848  26.325484
789.30898  26.805196
788.30949  26.273208
787.30999  26.878306
786.3105  27.049149
785.311  26.741651
784.31151  24.064475
783.31202  24.096722
782.31252  26.465608
781.31303  27.349171
780.31353  26.777545
779.31404  26.590427
778.31454  29.313155
777.31505  28.766367
776.31556  28.21624
775.31606  29.479094
774.31657  27.425509
773.31707  27.118266
772.31758  27.7987
771.31808  31.54111
770.31859  28.713142
769.3191  28.751737
768.3196  30.03746
767.32011  29.873769
766.32061  30.068468
765.32112  28.407932
764.32162  29.490381
763.32213  29.68217
762.32264  28.930846
761.32314  29.868425
760.32365  28.841677
759.32415  30.543429
758.32466  30.207376
757.32516  30.585296
756.32567  30.793766
755.32618  31.224124
754.32668  30.525165
753.32719  30.25346
752.32769  29.964873
751.3282  29.135347
750.3287  28.03258
749.32921  29.898054
748.32972  30.131966
747.33022  32.272927
746.33073  29.502693
745.33123  29.411065
744.33174  27.989423
743.33224  29.008287
742.33275  29.975473
741.33325  32.841904
740.33376  31.016113
739.33427  32.602665
738.33477  29.708634
737.33528  29.410603
736.33578  32.547483
735.33629  29.631228
734.33679  31.366051
733.3373  31.859643
732.33781  30.314166
731.33831  32.514423
730.33882  31.476264
729.33932  29.381191
728.33983  31.968823
727.34033  32.978437
726.34084  30.768718
725.34135  33.836008
724.34185  33.522205
723.34236  31.171111
722.34286  33.165925
721.34337  32.772219
720.34387  34.755969
719.34438  35.713649
718.34489  37.260821
717.34539  34.547326
716.3459  35.480358
715.3464  30.613453
714.34691  32.605645
713.34741  34.292299
712.34792  34.10031
711.34843  31.62469
710.34893  30.035224
709.34944  30.691104
708.34994  29.400828
707.35045  24.166411
706.35095  27.66998
705.35146  26.116836
704.35197  26.577525
703.35247  25.639036
702.35298  24.544757
701.35348  24.873511
700.35399  25.490263
699.35449  22.939673
698.355  24.15345
697.35551  25.219412
696.35601  23.344817
695.35652  23.541736
694.35702  23.254384
693.35753  23.612783
692.35803  26.688475
691.35854  25.906125
690.35905  24.834013
689.35955  25.073635
688.36006  26.892659
687.36056  27.377291
686.36107  24.145146
685.36157  26.607308
684.36208  26.821661
683.36259  26.985257
682.36309  24.389392
681.3636  26.255151
680.3641  25.459148
679.36461  25.34108
678.36511  24.824067
677.36562  23.722068
676.36613  25.016653
675.36663  24.920831
674.36714  27.184502
673.36764  25.720852
672.36815  26.240931
671.36865  28.067871
670.36916  27.534597
669.36967  28.193163
668.37017  27.746635
667.37068  26.893771
666.37118  26.125794
665.37169  27.035945
664.37219  25.10473
663.3727  26.441304
662.37321  27.978026
661.37371  27.203479
660.37422  24.892249
659.37472  26.024803
658.37523  28.961417
657.37573  34.36205
656.37624  29.782809
655.37675  28.739091
654.37725  30.528863
653.37776  29.146593
652.37826  29.152131
651.37877  29.744774
650.37927  32.218634
649.37978  34.202801
648.38028  37.06754
647.38079  39.497826
646.3813  36.706718
645.3818  32.148683
644.38231  28.676641
643.38281  26.189485
642.38332  28.060382
641.38382  29.43794
640.38433  28.102264
639.38484  28.995891
638.38534  26.448186
637.38585  22.445524
636.38635  24.595571
635.38686  22.421107
634.38736  21.703138
633.38787  20.703403
632.38838  19.658596
631.38888  21.077288
630.38939  18.820152
629.38989  19.389189
628.3904  20.48403
627.3909  20.465216
626.39141  19.903915
625.39192  18.530981
624.39242  18.565772
623.39293  16.477193
622.39343  18.242031
621.39394  15.949628
620.39444  14.826968
619.39495  14.715055
618.39546  16.895961
617.39596  16.861953
616.39647  19.226515
615.39697  17.805417
614.39748  16.579896
613.39798  16.670486
612.39849  16.524364
611.399  15.876423
610.3995  16.902616
609.40001  16.460957
608.40051  16.089138
607.40102  17.548575
606.40152  18.23165
605.40203  18.154822
604.40254  18.963011
603.40304  17.891607
602.40355  18.324365
601.40405  18.664931
600.40456  18.655784
599.40506  17.507013
598.40557  19.110772
597.40608  17.74341
596.40658  17.881951
595.40709  20.329645
594.40759  19.11358
593.4081  19.199974
592.4086  19.804419
591.40911  20.369737
590.40962  18.875277
589.41012  20.650279
588.41063  20.326592
587.41113  20.105526
586.41164  18.615748
585.41214  18.56441
584.41265  20.07949
583.41316  18.811114
582.41366  20.708858
581.41417  19.240492
580.41467  19.220301
579.41518  22.255048
578.41568  21.763268
577.41619  21.156966
576.4167  23.446169
575.4172  24.611051
574.41771  26.173397
573.41821  26.661908
572.41872  29.396105
571.41922  30.433624
570.41973  34.242855
569.42024  38.355973
568.42074  60.602909
567.42125  49.48864
566.42175  27.240602
565.42226  23.489554
564.42276  16.749633
563.42327  11.392676
562.42377  9.8647565
561.42428  11.673468
560.42479  10.05243
559.42529  10.577277
558.4258  10.202333
557.4263  9.2145693
556.42681  8.9828028
555.42731  8.7188256
554.42782  9.0625091
553.42833  8.9156279
552.42883  7.9455307
551.42934  8.1713719
550.42984  8.1851357
549.43035  9.8330164
548.43085  10.941595
547.43136  8.9205113
546.43187  6.8726706
545.43237  5.9922001
544.43288  4.8456262
543.43338  4.2589473
542.43389  4.300711
541.43439  3.6988242
540.4349  4.0018354
539.43541  3.6791653
538.43591  3.6816554
537.43642  3.832736
536.43692  4.2165155
535.43743  4.684333
534.43793  4.0528973
533.43844  5.2589666
532.43895  5.6520699
531.43945  4.54615
530.43996  3.9112815
529.44046  3.6382244
528.44097  4.2697011
527.44147  3.8863245
526.44198  3.4456935
525.44249  3.0909191
524.44299  2.746585
523.4435  4.2443157
522.444  3.4777152
521.44451  2.9251942
520.44501  3.1070206
519.44552  3.2226701
518.44603  3.7802986
517.44653  3.4430494
516.44704  3.2021924
515.44754  3.8544332
514.44805  4.0022516
513.44855  3.8757424
512.44906  3.8368357
511.44957  3.2075292
510.45007  3.5454339
509.45058  3.5505931
508.45108  2.8437408
507.45159  2.9523185
506.45209  3.0780468
505.4526  3.576229
504.45311  3.0352902
503.45361  3.6333848
502.45412  3.7822495
501.45462  3.6231241
500.45513  3.6336911
499.45563  3.398831
498.45614  2.929722
497.45665  2.608608
496.45715  2.9711975
495.45766  3.0846301
494.45816  3.3143711
493.45867  3.4919803
492.45917  3.437549
491.45968  3.1543098
490.46019  3.3138252
489.46069  3.5480789
488.4612  3.1297455
487.4617  3.5544315
486.46221  3.0041776
485.46271  3.368472
484.46322  4.4721889
483.46373  3.8858048
482.46423  3.6530515
481.46474  3.7927687
480.46524  3.5550851
479.46575  3.6438458
478.46625  3.9519246
477.46676  3.3598182
476.46726  3.30409
475.46777  2.7980993
474.46828  3.2099298
473.46878  2.8262593
472.46929  2.9444471
471.46979  3.5627963
470.4703  3.2186823
469.4708  3.4572317
468.47131  3.8585056
467.47182  3.7322698
466.47232  3.626534
465.47283  4.0391786
464.47333  3.518079
463.47384  3.8536748
462.47434  4.1692625
461.47485  3.9965482
460.47536  3.915579
459.47586  3.2704519
458.47637  3.878832
457.47687  3.6376021
456.47738  3.0458078
455.47788  3.8805656
454.47839  3.3338146
453.4789  3.2558291
452.4794  3.4464629
451.47991  3.6161267
450.48041  3.1433071
449.48092  3.4650701
448.48142  3.8908433
447.48193  3.4825374
446.48244  3.6781964
445.48294  3.2564178
444.48345  3.631393
443.48395  3.994562
442.48446  3.7751213
441.48496  2.987505
440.48547  3.3653215
439.48598  3.7407593
438.48648  3.3786771
437.48699  3.5255689
436.48749  3.5127371
435.488  4.005347
434.4885  2.7935421
433.48901  2.9838279
432.48952  4.1853973
431.49002  4.2117732
430.49053  3.903023
429.49103  4.2798305
428.49154  4.4636065
427.49204  4.1114907
426.49255  4.3127326
425.49306  3.6064496
424.49356  4.1765458
423.49407  4.2340519
422.49457  3.1935813
421.49508  3.657534
420.49558  4.6682319
419.49609  4.0161671
418.4966  3.9952136
417.4971  4.8244046
416.49761  4.5297293
415.49811  4.294826
414.49862  5.1727234
413.49912  4.8915662
412.49963  4.1730477
411.50014  4.3720444
410.50064  4.0609415
409.50115  4.0274402
408.50165  4.012601
407.50216  4.369721
406.50266  5.1365929
405.50317  5.3850055
404.50368  5.0129125
403.50418  5.299657
402.50469  6.2167462
401.50519  4.7809344
400.5057  5.1353217
399.5062  4.4272528
398.50671  4.181125
397.50722  4.0126654
396.50772  4.3292123
395.50823  3.9533772
394.50873  3.8238195
393.50924  4.130926
392.50974  3.6140588
391.51025  3.8784441
390.51075  3.970958
389.51126  3.7919962
388.51177  3.2521686
387.51227  3.523157
386.51278  3.6215274
385.51328  3.5191533
384.51379  4.3567116
383.51429  4.3749939
382.5148  3.7379023
381.51531  4.344867
380.51581  3.4796595
379.51632  3.7638869
378.51682  3.5429838
377.51733  3.614309
376.51783  4.3138946
375.51834  4.4798608
374.51885  3.66081
373.51935  4.084794
372.51986  3.7537279
371.52036  3.9206619
370.52087  5.0321143
369.52137  4.2553596
368.52188  3.855003
367.52239  4.4932027
366.52289  4.2412866
365.5234  3.9340721
364.5239  5.5694258
363.52441  5.5287162
362.52491  4.6177656
361.52542  4.3208591
360.52593  3.9915321
359.52643  4.3816015
358.52694  4.5264634
357.52744  4.371401
356.52795  4.1414462
355.52845  4.5560821
354.52896  4.540546
353.52947  4.3878169
352.52997  4.2038842
351.53048  4.3191206
350.53098  4.5171548
349.53149  4.0423465
348.53199  3.9548049
347.5325  4.5343918
346.53301  3.7449222
345.53351  4.5937192
344.53402  4.9425843
343.53452  4.4036159
342.53503  5.0612681
341.53553  4.3739563
340.53604  5.5376939
339.53655  4.4337552
338.53705  4.0253203
337.53756  4.0054335
336.53806  5.2556766
335.53857  4.8520971
334.53907  5.6106841
333.53958  5.0193828
332.54009  4.9438901
331.54059  4.6783243
330.5411  4.5193145
329.5416  4.9865734
328.54211  4.3999779
327.54261  3.6815742
326.54312  4.3888675
325.54363  4.4799788
324.54413  5.1884284
323.54464  4.4659949
322.54514  4.5869542
321.54565  4.6068111
320.54615  3.8161473
319.54666  3.7735343
318.54717  5.2810141
317.54767  4.6359204
316.54818  4.9371915
315.54868  4.8163607
314.54919  5.0844736
313.54969  4.2471018
312.5502  4.337956
311.55071  4.8364853
310.55121  4.5808833
309.55172  3.6176414
308.55222  5.2925315
307.55273  4.512037
306.55323  5.4627169
305.55374  5.9437806
304.55425  5.0336229
303.55475  3.8160019
302.55526  4.3333597
301.55576  4.3372483
300.55627  5.5696282
299.55677  4.6560575
298.55728  4.3537492
297.55778  4.5493703
296.55829  4.856077
295.5588  5.5344981
294.5593  5.0376891
293.55981  5.3005033
292.56031  5.5118265
291.56082  6.0115927
290.56132  5.4148536
289.56183  6.2174099
288.56234  5.9561989
287.56284  6.6990935
286.56335  8.3649065
285.56385  9.7393693
284.56436  8.0689699
283.56486  6.050649
282.56537  5.0729493
281.56588  4.764848
280.56638  4.3226152
279.56689  3.9373752
278.56739  4.5614806
277.5679  5.2526948
276.5684  6.252735
275.56891  4.0022455
274.56942  4.3870534
273.56992  4.6705644
272.57043  4.9626494
271.57093  5.1178781
270.57144  5.4407395
269.57194  5.7184609
268.57245  4.6071721
267.57296  5.3359404
266.57346  6.1510088
265.57397  4.8112423
264.57447  4.936783
263.57498  4.9543926
262.57548  4.0450504
261.57599  5.3795352
260.5765  5.6498052
259.577  5.549172
258.57751  4.9027617
257.57801  5.4104979
256.57852  5.1608547
255.57902  4.9569545
254.57953  4.3575538
253.58004  5.6052476
252.58054  4.3328333
251.58105  5.1162863
250.58155  4.853636
249.58206  5.2568531
248.58256  4.8344646
247.58307  4.9724626
246.58358  5.1499029
245.58408  5.9131507
244.58459  4.9434019
243.58509  4.8295908
242.5856  5.5974642
241.5861  5.4630911
240.58661  4.792937
239.58712  5.2535678
238.58762  5.7460347
237.58813  5.8787057
236.58863  4.6163363
235.58914  4.7414048
234.58964  5.5194786
233.59015  5.0779906
232.59066  5.7537635
231.59116  5.5159824
230.59167  5.3745373
229.59217  6.1182077
228.59268  5.7865776
227.59318  6.5493927
226.59369  5.7892687
225.5942  5.4294444
224.5947  5.3320476
223.59521  5.4148097
222.59571  5.1478211
221.59622  4.7347963
220.59672  4.8062385
219.59723  5.368083
218.59774  4.9267534
217.59824  4.7254367
216.59875  4.6574953
215.59925  5.5148937
214.59976  5.6008286
213.60026  4.8486317
212.60077  4.6870219
211.60127  4.8276397
210.60178  5.7608773
209.60229  5.1853802
208.60279  4.5193539
207.6033  4.6199755
206.6038  5.090775
205.60431  5.3465306
204.60481  5.6674962
203.60532  5.8595574
202.60583  5.6816852
201.60633  6.2206877
200.60684  7.1413355
199.60734  7.1752332
198.60785  7.5775505
197.60835  6.8759608
196.60886  5.8901776
195.60937  6.4811899
194.60987  6.1603608
193.61038  5.9760955
192.61088  5.5721617
191.61139  6.46842
190.61189  5.6462729
189.6124  5.5167085
188.61291  5.9975992
187.61341  5.6713905
186.61392  5.9323164
185.61442  8.704918
184.61493  6.5232099
183.61543  5.8525757
182.61594  5.7800841
181.61645  5.4520003
180.61695  5.9823249
179.61746  6.6732045
178.61796  6.2969402
177.61847  6.2138104
176.61897  5.8309419
175.61948  5.9661596
174.61999  6.730517
173.62049  7.128765
172.621  5.5138476
171.6215  6.6695829
170.62201  6.9479535
169.62251  6.4279932
168.62302  6.800721
167.62353  6.0903675
166.62403  5.7874604
165.62454  6.2930899
164.62504  6.2459864
163.62555  6.0281486
162.62605  7.1710467
161.62656  7.1942117
160.62707  7.4709179
159.62757  6.9464343
158.62808  6.1780756
157.62858  6.5717885
156.62909  6.9276169
155.62959  6.5845282
154.6301  7.1939726
153.63061  7.1217772
152.63111  6.8851721
151.63162  7.3525137
150.63212  7.3378309
149.63263  7.9868747
148.63313  7.5131628
147.63364  6.8007333
146.63415  7.289567
145.63465  8.702992
144.63516  7.2880773
143.63566  7.6555698
142.63617  7.0094607
141.63667  8.2008414
140.63718  9.994932
139.63769  8.6058144
138.63819  6.9597364
137.6387  6.992815
136.6392  7.9606447
135.63971  7.0826827
134.64021  7.4134369
133.64072  8.4203224
132.64123  7.9911968
131.64173  6.830154
130.64224  7.8712339
129.64274  7.3820224
128.64325  8.5082591
127.64375  8.2128496
126.64426  8.6267568
125.64476  9.5207158
124.64527  11.711085
123.64578  15.409152
122.64628  16.108206
121.64679  11.701773
120.64729  9.0806131
119.6478  8.1188938
118.6483  7.6888958
117.64881  5.8756698
116.64932  7.0060562
115.64982  6.7821166
114.65033  5.8223641
113.65083  5.8936111
112.65134  6.4806039
111.65184  6.7370771
110.65235  7.3444786
109.65286  7.0132782
108.65336  7.0677599
107.65387  7.5932055
106.65437  7.0924342
105.65488  7.137987
104.65538  7.3790888
103.65589  7.646947
102.6564  7.8075313
101.6569  7.9300605
100.65741  7.9588219
99.657913  7.1435704
98.658419  7.4952195
97.658925  9.0306036
96.65943  8.8151851
95.659936  8.9521356
94.660442  7.5850039
93.660947  7.014236
92.661453  6.902215
91.661959  7.0342067
90.662464  7.0267995
89.66297  6.5838606
88.663476  6.5640093
87.663981  6.8414771
86.664487  5.815341
85.664993  6.841266
84.665499  6.1888822
83.666004  6.1669574
82.66651  7.7356959
81.667016  7.3998726
80.667521  8.6299711
79.668027  11.253544
78.668533  17.254314
77.669038  21.275632
76.669544  23.706491
75.67005  29.854
74.670556  21.534096
73.671061  10.406777
72.671567  5.042831
71.672073  3.8217005
70.672578  3.2876783
69.673084  2.4260143
68.67359  2.8604119
67.674095  1.8265615
66.674601  1.9836205
65.675107  2.3170519
64.675613  2.4269453
63.676118  2.0223174
62.676624  1.9310008
61.67713  1.8572018
60.677635  2.06345
59.678141  1.8812618
58.678647  2.6927028
57.679152  1.7747207
56.679658  1.7791931
55.680164  1.6540809
54.68067  1.9958025
53.681175  1.8037353
52.681681  1.7130823
51.682187  2.0525015
50.682692  1.7791514
49.683198  1.9195788
48.683704  1.9144286
47.684209  2.0674238
46.684715  2.1533451
45.685221  2.09149
44.685726  1.7916861
43.686232  1.9782896
42.686738  2.3337006
41.687244  1.8201244
40.687749  2.2036114
39.688255  2.2859404
38.688761  2.9362675
37.689266  2.1690202
36.689772  2.484205
35.690278  2.4667208
34.690783  2.4907377
33.691289  2.7179099
32.691795  2.2595243
31.692301  2.4001578
30.692806  2.5118694
29.693312  2.1640118
28.693818  2.1585313
27.694323  2.1835753
26.694829  2.0874649
25.695335  2.4306521
24.69584  2.1064898
23.696346  2.0432618
22.696852  2.1427859
21.697358  2.5198683
20.697863  2.0421469
19.698369  2.1663746
18.698875  2.6756045
17.69938  2.0701265
16.699886  2.5098434
15.700392  2.1086153
14.700897  2.7156625
13.701403  2.2240966
12.701909  1.8059139
11.702415  1.6064209
10.70292  1.6280301
9.7034259  1.9271449
8.7039316  2.2417628
7.7044373  2.336133
6.704943  3.1427798
5.7054487  4.6480006
4.7059544  9.6739537
3.7064601  13.968485
2.7069658  8.8315406
1.7074715  1.7893416
0.70797721  0.88134853
-0.29151709  1.0678849
-1.2910114  0.48593448
-2.2905057  0.41128278
-3.29  0.53554067

# Region:            C_1s
# Spectrum ID:       13
# Acquisition Date:  06/30/22 14:37:47 UTC
# Analysis Method:   XPS
# Analyzer:          Analyzer
# Analyzer Lens:     LargeArea:1.5kV
# Analyzer Slit:     4:3x20\B:open
# Scan Mode:         FixedAnalyzerTransmission
# Curves/Scan:       1
# Values/Curve:      90
# Dwell Time:        0.5
# Excitation Energy: 1486.71
# Binding Energy:    299.71
# Pass Energy:       30
# Bias Voltage:      -1
# Detector Voltage:  1800
# Eff. Workfunction: 4.498
# Source:            XR 50 MF (UXC1000)
# Comment:
# OrdinateRange:     [-18.000000, 18.000000]
#
# Cycle: 0
# Number of Scans: 3
#
# Cycle: 0, Curve: 0
# Acquisition Date: 06/30/22 14:37:47 UTC
#
# ColumnLabels: energy counts/s
#
299.71  3.3434125
299.51101  3.3953155
299.31202  3.6007536
299.11303  3.6527499
298.91404  3.4127447
298.71506  3.397164
298.51607  3.5446479
298.31708  3.5441796
298.11809  3.211182
297.9191  3.4196707
297.72011  3.7010252
297.52112  3.5798062
297.32213  3.3050647
297.12315  3.5534385
296.92416  3.6489428
296.72517  3.3548293
296.52618  3.5891364
296.32719  3.5376951
296.1282  3.5585559
295.92921  3.6298326
295.73022  3.4134405
295.53124  3.3629754
295.33225  3.5437972
295.13326  3.6027123
294.93427  3.5153122
294.73528  3.644645
294.53629  3.6410639
294.3373  3.6940359
294.13831  3.4767167
293.93933  3.4528025
293.74034  3.5857861
293.54135  3.5973306
293.34236  3.7492314
293.14337  3.575252
292.94438  3.5529416
292.74539  3.7940349
292.5464  3.5969307
292.34742  3.4807142
292.14843  3.4822235
291.94944  3.5018325
291.75045  3.558838
291.55146  3.7216775
291.35247  3.6664256
291.15348  3.7022645
290.95449  3.405374
290.75551  3.6394897
290.55652  3.6212821
290.35753  3.4605808
290.15854  3.5534964
289.95955  3.8750983
289.76056  3.6117413
289.56157  3.7637164
289.36258  3.7300682
289.1636  3.631016
288.96461  3.6966343
288.76562  3.8407231
288.56663  3.8661148
288.36764  3.8758975
288.16865  4.0027622
287.96966  4.2995418
287.77067  4.5657321
287.57169  4.5926533
287.3727  4.6934332
287.17371  4.8248974
286.97472  4.8325485
286.77573  5.0797779
286.57674  5.244943
286.37775  5.5410316
286.17876  6.1110909
285.97978  7.0517758
285.78079  7.5593511
285.5818  8.4199934
285.38281  8.7353869
285.18382  8.6051221
284.98483  7.8500458
284.78584  6.8790798
284.58685  5.7580427
284.38787  4.8449395
284.18888  4.0151449
283.98989  3.6601816
283.7909  3.5024078
283.59191  3.4799073
283.39292  3.5838871
283.19393  3.2849803
282.99494  3.4756688
282.79596  3.3500087
282.59697  3.5179437
282.39798  3.4693588
282.19899  3.3932802
282  3.2730608

# Region:            survey_hd
# Spectrum ID:       15
# Acquisition Date:  06/30/22 14:53:04 UTC
# Analysis Method:   XPS
# Analyzer:          Analyzer
# Analyzer Lens:     MediumArea:1.5kV
# Analyzer Slit:     4:3x20\B:open
# Scan Mode:         FixedAnalyzerTransmission
# Curves/Scan:       1
# Values/Curve:      7018
# Dwell Time:        0.1
# Excitation Energy: 1486.71
# Binding Energy:    1400
# Pass Energy:       50
# Bias Voltage:      -1
# Detector Voltage:  1800
# Eff. Workfunction: 4.498
# Source:            XR 50 MF (UXC1000)
# Comment:
# OrdinateRange:     [-7.000000, 7.000000]
#
# Cycle: 0
# Number of Scans: 1
#
# Cycle: 0, Curve: 0
# Acquisition Date: 06/30/22 14:53:04 UTC
#
# ColumnLabels: energy counts/s
#
1400  95.878405
1399.8  92.8806
1399.6  90.975147
1399.4  90.007454
1399.2  88.819762
1399  94.42287
1398.8  90.050105
1398.6  91.508961
1398.4  95.852536
1398.2  86.159542
1398  86.731733
1397.8  88.507308
1397.6  87.163563
1397.4  84.557936
1397.2  87.41092
1397  87.800404
1396.8  79.149125
1396.6  72.127968
1396.4  81.741985
1396.2  80.162467
1396  78.97716
1395.8  80.485336
1395.6  77.79509
1395.4  80.603187
1395.2  76.821102
1395  75.833227
1394.8  80.324772
1394.6  73.609651
1394.4  75.125816
1394.2  79.336446
1394  70.899432
1393.8  68.798549
1393.6  67.220161
1393.4  69.066559
1393.2  75.97071
1393  74.664731
1392.8  76.3548
1392.6  73.403093
1392.4  69.312474
1392.2  73.166626
1392  70.415095
1391.8  67.629808
1391.6  62.887156
1391.4  69.485767
1391.2  69.28011
1391  68.019409
1390.8  71.298471
1390.6  69.162881
1390.4  64.570874
1390.2  65.793559
1390  67.788744
1389.8  67.284415
1389.6  66.263166
1389.4  68.059587
1389.2  66.036359
1389  64.92635
1388.8  61.915262
1388.6  65.682278
1388.4  63.48324
1388.2  65.657581
1388  68.629907
1387.8  66.488429
1387.6  67.042477
1387.4  61.642561
1387.2  64.081467
1387  60.429502
1386.8  58.994182
1386.6  60.451199
1386.4  59.200665
1386.2  58.193452
1386  61.275465
1385.8  57.828369
1385.6  62.004537
1385.4  62.392554
1385.2  59.485149
1385  57.894294
1384.8  54.944208
1384.6  61.378235
1384.4  61.181572
1384.2  53.715396
1384  57.370401
1383.8  58.086252
1383.6  54.428179
1383.4  57.49769
1383.2  58.379447
1383  59.073212
1382.8  59.876511
1382.6  61.284596
1382.4  53.682094
1382.2  56.143752
1382  56.23262
1381.8  55.863647
1381.6  54.944723
1381.4  57.403574
1381.2  59.987241
1381  55.492895
1380.8  54.86133
1380.6  55.155785
1380.4  53.59146
1380.2  56.115987
1380  53.88981
1379.8  50.8953
1379.6  52.54413
1379.4  57.255113
1379.2  50.49225
1379  47.760807
1378.8  47.20338
1378.6  51.467826
1378.4  53.683655
1378.2  54.948878
1378  54.559432
1377.8  51.194167
1377.6  55.148128
1377.4  51.357799
1377.2  51.540709
1377  50.46304
1376.8  50.960881
1376.6  46.60791
1376.4  47.783527
1376.2  47.067187
1376  50.194821
1375.8  49.242655
1375.6  50.575097
1375.4  48.363795
1375.2  46.335224
1375  46.885935
1374.8  48.351815
1374.6  48.545902
1374.4  47.149956
1374.2  47.003173
1374  47.279565
1373.8  45.35319
1373.6  50.300915
1373.4  48.365326
1373.2  47.272738
1373  46.992327
1372.8  48.245647
1372.6  46.25938
1372.4  44.815945
1372.2  46.783936
1372  43.829984
1371.8  44.047622
1371.6  45.929678
1371.4  48.382293
1371.2  44.069653
1371  48.464126
1370.8  46.443224
1370.6  44.520199
1370.4  42.404872
1370.2  44.559988
1370  48.456204
1369.8  45.997173
1369.6  41.837354
1369.4  41.575428
1369.2  41.893251
1369  41.389863
1368.8  42.026086
1368.6  44.081248
1368.4  39.67543
1368.2  40.279731
1368  42.658474
1367.8  45.428772
1367.6  40.979012
1367.4  43.370526
1367.2  41.698832
1367  39.742438
1366.8  42.108248
1366.6  43.667003
1366.4  42.079869
1366.2  43.462653
1366  41.889784
1365.8  41.564289
1365.6  40.056956
1365.4  39.951182
1365.2  36.608561
1365  40.141108
1364.8  41.176758
1364.6  41.309332
1364.4  41.487909
1364.2  40.035033
1364  37.480791
1363.8  37.566397
1363.6  39.574269
1363.4  38.351946
1363.2  41.495869
1363  37.512756
1362.8  36.852654
1362.6  38.892273
1362.4  39.511569
1362.2  40.03234
1362  39.836888
1361.8  38.33176
1361.6  39.105306
1361.4  38.172371
1361.2  37.414295
1361  38.110362
1360.8  38.46448
1360.6  37.214266
1360.4  36.866137
1360.2  37.139271
1360  39.023855
1359.8  41.718086
1359.6  36.442162
1359.4  36.430574
1359.2  36.999174
1359  36.898745
1358.8  37.148349
1358.6  35.399161
1358.4  35.775291
1358.2  38.429922
1358  38.429477
1357.8  38.597875
1357.6  40.002841
1357.4  36.104213
1357.2  37.125238
1357  40.675743
1356.8  37.506872
1356.6  37.838458
1356.4  39.452807
1356.2  39.730183
1356  38.865701
1355.8  38.712437
1355.6  37.290739
1355.4  35.637757
1355.2  39.620474
1355  38.273876
1354.8  37.841856
1354.6  37.005025
1354.4  35.261093
1354.2  34.475993
1354  38.288263
1353.8  36.081975
1353.6  36.048495
1353.4  35.840747
1353.2  34.983874
1353  36.932974
1352.8  40.119165
1352.6  37.828269
1352.4  37.437124
1352.2  36.202015
1352  36.995876
1351.8  39.561828
1351.6  36.076907
1351.4  38.712975
1351.2  38.240098
1351  38.355372
1350.8  37.037155
1350.6  35.622249
1350.4  37.567562
1350.2  36.100426
1350  37.698324
1349.8  37.673775
1349.6  38.393941
1349.4  37.56152
1349.2  35.778156
1349  34.137636
1348.8  31.170554
1348.6  33.245997
1348.4  36.116975
1348.2  36.254428
1348  36.474108
1347.8  34.390518
1347.6  34.333503
1347.4  37.125941
1347.2  38.788687
1347  36.488385
1346.8  35.935012
1346.6  38.487465
1346.4  33.420127
1346.2  33.47253
1346  35.45253
1345.8  35.316171
1345.6  36.958133
1345.4  34.121481
1345.2  37.550908
1345  36.221565
1344.8  35.365693
1344.6  34.750428
1344.4  34.901091
1344.2  36.287197
1344  36.267405
1343.8  35.174446
1343.6  36.098743
1343.4  37.916371
1343.2  37.759135
1343  37.702835
1342.8  36.241141
1342.6  36.660857
1342.4  39.813281
1342.2  38.818332
1342  38.372605
1341.8  36.846159
1341.6  38.596114
1341.4  40.148034
1341.2  38.344955
1341  36.971142
1340.8  37.496045
1340.6  36.622564
1340.4  36.705634
1340.2  38.182783
1340  37.602715
1339.8  37.129537
1339.6  35.169783
1339.4  35.431606
1339.2  38.276028
1339  36.255986
1338.8  41.084805
1338.6  38.630919
1338.4  36.237908
1338.2  38.167181
1338  33.768955
1337.8  35.316531
1337.6  36.824203
1337.4  37.666261
1337.2  34.558682
1337  38.338435
1336.8  36.619397
1336.6  36.866366
1336.4  35.038327
1336.2  37.272973
1336  37.553584
1335.8  36.24884
1335.6  36.851908
1335.4  35.149685
1335.2  36.635635
1335  36.135507
1334.8  36.997814
1334.6  37.188933
1334.4  37.945645
1334.2  36.330384
1334  37.505639
1333.8  34.830622
1333.6  34.895866
1333.4  36.052817
1333.2  38.73399
1333  38.846643
1332.8  39.754985
1332.6  38.527326
1332.4  37.523833
1332.2  35.940249
1332  37.123631
1331.8  36.001166
1331.6  36.02788
1331.4  36.905552
1331.2  35.684212
1331  34.689149
1330.8  37.007222
1330.6  34.825025
1330.4  37.407677
1330.2  36.007398
1330  37.739079
1329.8  37.432264
1329.6  37.259514
1329.4  36.833446
1329.2  37.712605
1329  38.635429
1328.8  36.139363
1328.6  36.976384
1328.4  40.96738
1328.2  37.631803
1328  36.555912
1327.8  37.098908
1327.6  38.868863
1327.4  34.020548
1327.2  35.978512
1327  37.429004
1326.8  36.864538
1326.6  36.815699
1326.4  34.90475
1326.2  38.102405
1326  38.153761
1325.8  36.867141
1325.6  36.083588
1325.4  34.99264
1325.2  35.422948
1325  36.874017
1324.8  37.44661
1324.6  37.450089
1324.4  37.213473
1324.2  41.001383
1324  40.718787
1323.8  38.31214
1323.6  38.775829
1323.4  36.05826
1323.2  34.930822
1323  35.56296
1322.8  37.367944
1322.6  36.961422
1322.4  37.28513
1322.2  36.853467
1322  39.69498
1321.8  34.383806
1321.6  34.005233
1321.4  38.598172
1321.2  39.453805
1321  35.980732
1320.8  35.019672
1320.6  36.824677
1320.4  37.97173
1320.2  38.689373
1320  34.970878
1319.8  35.343153
1319.6  35.854515
1319.4  35.97168
1319.2  37.50123
1319  35.633893
1318.8  35.477365
1318.6  36.263279
1318.4  33.667908
1318.2  35.775533
1318  38.548864
1317.8  37.036777
1317.6  34.917805
1317.4  37.861885
1317.2  37.587235
1317  37.966419
1316.8  35.035316
1316.6  35.660014
1316.4  37.328645
1316.2  35.446219
1316  38.149035
1315.8  38.790085
1315.6  37.272514
1315.4  36.87256
1315.2  35.304435
1315  37.857001
1314.8  39.431156
1314.6  36.478812
1314.4  37.036423
1314.2  38.687916
1314  36.800805
1313.8  36.739325
1313.6  37.644326
1313.4  36.60053
1313.2  37.602136
1313  37.062648
1312.8  37.836812
1312.6  33.963957
1312.4  36.719223
1312.2  39.570988
1312  38.842333
1311.8  36.064653
1311.6  35.841862
1311.4  35.594468
1311.2  34.314106
1311  38.637806
1310.8  40.14376
1310.6  37.496586
1310.4  39.32116
1310.2  37.711731
1310  37.15433
1309.8  35.68584
1309.6  37.234226
1309.4  36.073457
1309.2  34.358393
1309  35.036276
1308.8  36.885969
1308.6  35.151235
1308.4  38.18982
1308.2  36.054964
1308  34.780715
1307.8  40.668496
1307.6  37.272358
1307.4  36.855205
1307.2  38.84074
1307  35.122455
1306.8  36.65006
1306.6  37.350537
1306.4  37.628665
1306.2  35.448215
1306  35.808723
1305.8  37.457092
1305.6  36.544084
1305.4  35.021447
1305.2  35.886993
1305  35.274131
1304.8  37.026598
1304.6  36.814675
1304.4  36.635892
1304.2  36.288201
1304  37.075426
1303.8  34.864784
1303.6  38.553911
1303.4  36.225522
1303.2  37.600122
1303  39.335256
1302.8  37.37846
1302.6  39.44648
1302.4  40.974207
1302.2  37.220689
1302  39.276547
1301.8  38.738831
1301.6  41.690614
1301.4  39.036971
1301.2  36.699245
1301  36.81875
1300.8  36.675037
1300.6  38.256768
1300.4  40.306281
1300.2  36.851824
1300  36.886252
1299.8  39.096531
1299.6  33.697204
1299.4  36.812739
1299.2  38.174824
1299  42.809683
1298.8  40.650357
1298.6  40.346931
1298.4  37.205522
1298.2  35.312388
1298  37.080007
1297.8  35.151096
1297.6  35.510652
1297.4  37.383307
1297.2  37.206228
1297  36.440618
1296.8  36.543488
1296.6  40.449439
1296.4  36.659603
1296.2  35.371272
1296  34.673826
1295.8  34.68249
1295.6  35.976911
1295.4  38.175288
1295.2  35.766353
1295  34.185809
1294.8  35.681104
1294.6  36.69315
1294.4  34.951735
1294.2  36.057511
1294  34.129875
1293.8  35.191689
1293.6  38.442503
1293.4  36.174975
1293.2  35.944113
1293  34.628392
1292.8  36.666552
1292.6  39.019978
1292.4  36.626067
1292.2  36.118107
1292  34.131512
1291.8  36.200483
1291.6  35.986772
1291.4  37.783885
1291.2  35.178692
1291  36.062556
1290.8  33.804025
1290.6  36.212567
1290.4  39.252573
1290.2  37.514776
1290  39.193118
1289.8  39.589196
1289.6  36.432536
1289.4  37.540943
1289.2  38.518053
1289  36.848726
1288.8  34.863147
1288.6  31.595732
1288.4  34.818102
1288.2  36.823358
1288  34.963191
1287.8  35.585764
1287.6  35.138579
1287.4  33.076067
1287.2  34.103752
1287  34.075556
1286.8  36.526677
1286.6  38.146447
1286.4  36.994305
1286.2  34.985247
1286  33.799447
1285.8  32.076553
1285.6  35.33333
1285.4  35.093352
1285.2  33.778422
1285  33.068784
1284.8  37.770654
1284.6  39.190835
1284.4  35.981867
1284.2  34.159988
1284  33.741695
1283.8  34.523786
1283.6  36.425902
1283.4  35.845385
1283.2  35.066546
1283  36.728727
1282.8  36.75967
1282.6  37.727489
1282.4  38.182986
1282.2  36.678048
1282  39.275959
1281.8  38.491306
1281.6  34.980497
1281.4  32.818376
1281.2  35.772899
1281  33.240902
1280.8  33.61333
1280.6  36.097099
1280.4  38.128869
1280.2  37.253611
1280  34.969025
1279.8  36.407859
1279.6  37.33969
1279.4  37.715721
1279.2  37.009737
1279  35.776923
1278.8  33.967804
1278.6  35.246949
1278.4  35.157666
1278.2  34.553322
1278  35.964547
1277.8  34.638678
1277.6  34.080336
1277.4  35.088798
1277.2  36.457001
1277  35.099691
1276.8  35.711783
1276.6  38.092157
1276.4  37.567329
1276.2  35.885418
1276  33.356805
1275.8  33.210583
1275.6  33.429631
1275.4  37.105584
1275.2  36.113644
1275  35.085388
1274.8  36.888306
1274.6  36.191091
1274.4  34.854245
1274.2  36.540183
1274  33.096952
1273.8  33.561045
1273.6  35.514082
1273.4  31.970371
1273.2  33.945415
1273  34.955445
1272.8  35.131161
1272.6  35.039441
1272.4  36.868238
1272.2  32.656511
1272  36.753844
1271.8  36.536051
1271.6  38.273331
1271.4  33.902334
1271.2  33.640295
1271  35.714495
1270.8  36.159937
1270.6  35.532395
1270.4  36.558392
1270.2  34.513988
1270  33.614579
1269.8  33.396558
1269.6  33.289064
1269.4  35.993767
1269.2  34.173631
1269  30.925362
1268.8  34.415202
1268.6  33.346576
1268.4  35.351818
1268.2  35.850607
1268  33.675012
1267.8  36.365448
1267.6  34.720566
1267.4  35.328513
1267.2  36.22751
1267  35.491818
1266.8  37.271766
1266.6  34.227899
1266.4  32.966589
1266.2  32.057883
1266  32.278961
1265.8  33.678218
1265.6  34.851726
1265.4  34.704654
1265.2  36.4401
1265  33.457095
1264.8  32.883042
1264.6  37.327395
1264.4  34.865776
1264.2  32.208297
1264  33.656262
1263.8  35.464078
1263.6  35.36525
1263.4  35.582045
1263.2  33.245726
1263  33.898844
1262.8  36.698405
1262.6  36.459158
1262.4  33.466989
1262.2  34.26813
1262  35.763573
1261.8  34.887245
1261.6  35.088418
1261.4  32.2991
1261.2  33.073191
1261  34.876843
1260.8  35.60022
1260.6  34.355273
1260.4  33.778358
1260.2  32.504689
1260  33.470713
1259.8  33.91515
1259.6  33.821543
1259.4  33.28522
1259.2  34.096624
1259  34.922382
1258.8  34.469116
1258.6  34.22885
1258.4  35.809073
1258.2  35.422955
1258  34.35087
1257.8  33.809175
1257.6  34.349075
1257.4  33.723563
1257.2  35.953344
1257  32.558792
1256.8  34.964295
1256.6  32.565682
1256.4  33.517383
1256.2  34.475103
1256  34.763182
1255.8  33.956145
1255.6  33.025944
1255.4  35.491678
1255.2  34.656273
1255  34.030453
1254.8  36.696958
1254.6  34.907925
1254.4  34.544973
1254.2  35.550516
1254  37.482879
1253.8  33.01539
1253.6  34.560526
1253.4  36.0179
1253.2  35.332734
1253  32.31111
1252.8  34.135295
1252.6  33.335036
1252.4  33.217606
1252.2  34.177994
1252  33.176318
1251.8  33.714237
1251.6  34.418432
1251.4  33.933742
1251.2  35.269018
1251  32.832913
1250.8  32.545269
1250.6  34.290002
1250.4  35.964938
1250.2  33.138545
1250  34.474448
1249.8  32.004759
1249.6  31.936311
1249.4  33.824018
1249.2  34.953228
1249  37.089062
1248.8  35.161436
1248.6  33.170078
1248.4  33.035148
1248.2  36.556299
1248  34.73134
1247.8  35.348195
1247.6  33.557764
1247.4  35.935593
1247.2  33.732417
1247  31.041087
1246.8  32.10088
1246.6  32.884718
1246.4  35.920413
1246.2  32.88968
1246  30.874587
1245.8  31.539985
1245.6  32.871365
1245.4  32.679265
1245.2  33.119013
1245  34.121527
1244.8  35.312036
1244.6  36.333347
1244.4  31.81246
1244.2  33.170445
1244  34.575574
1243.8  33.358906
1243.6  34.153781
1243.4  33.750007
1243.2  37.220255
1243  35.076438
1242.8  35.579896
1242.6  31.908982
1242.4  30.998961
1242.2  33.970543
1242  35.294757
1241.8  31.498756
1241.6  32.131136
1241.4  32.949023
1241.2  29.762142
1241  33.188418
1240.8  35.161698
1240.6  36.073344
1240.4  38.312985
1240.2  35.994828
1240  35.713884
1239.8  35.716039
1239.6  34.981723
1239.4  33.603505
1239.2  33.466267
1239  32.14839
1238.8  31.824757
1238.6  32.927602
1238.4  34.492864
1238.2  34.541912
1238  32.819172
1237.8  32.979808
1237.6  34.575432
1237.4  35.342926
1237.2  33.5821
1237  36.403337
1236.8  32.373712
1236.6  35.087119
1236.4  33.782399
1236.2  32.985355
1236  33.748553
1235.8  34.477101
1235.6  34.841883
1235.4  35.802165
1235.2  34.854743
1235  34.624634
1234.8  32.841671
1234.6  32.02033
1234.4  34.133399
1234.2  33.395308
1234  33.967299
1233.8  32.420191
1233.6  33.479535
1233.4  31.242454
1233.2  32.390944
1233  34.077646
1232.8  35.570749
1232.6  33.293335
1232.4  32.874183
1232.2  31.766944
1232  34.577053
1231.8  32.213531
1231.6  31.861439
1231.4  33.463625
1231.2  33.201284
1231  34.464334
1230.8  32.931803
1230.6  35.520357
1230.4  30.523646
1230.2  34.052861
1230  35.094796
1229.8  34.793403
1229.6  34.230858
1229.4  33.279555
1229.2  32.147522
1229  37.662646
1228.8  33.314627
1228.6  33.271094
1228.4  32.463186
1228.2  31.519501
1228  33.592369
1227.8  33.706381
1227.6  34.226803
1227.4  31.643304
1227.2  33.604373
1227  33.846462
1226.8  31.904881
1226.6  32.514065
1226.4  33.748238
1226.2  33.235558
1226  32.332798
1225.8  33.574294
1225.6  31.280064
1225.4  31.78063
1225.2  31.540201
1225  33.789496
1224.8  37.051419
1224.6  33.226461
1224.4  33.644926
1224.2  34.074368
1224  32.715097
1223.8  35.655772
1223.6  31.653639
1223.4  32.919652
1223.2  32.945634
1223  32.436431
1222.8  38.233422
1222.6  35.365059
1222.4  31.425324
1222.2  35.38663
1222  35.511428
1221.8  33.705621
1221.6  34.49579
1221.4  34.127948
1221.2  34.402432
1221  31.780904
1220.8  32.41857
1220.6  32.07635
1220.4  35.251808
1220.2  35.511799
1220  33.250995
1219.8  33.599453
1219.6  34.109812
1219.4  33.767321
1219.2  31.922488
1219  35.610517
1218.8  33.916934
1218.6  33.28288
1218.4  34.70795
1218.2  33.357356
1218  32.251454
1217.8  33.151
1217.6  33.406338
1217.4  34.211539
1217.2  35.059944
1217  34.026333
1216.8  34.801308
1216.6  33.320358
1216.4  36.877625
1216.2  33.878016
1216  34.008796
1215.8  30.453018
1215.6  35.058004
1215.4  32.728985
1215.2  31.728395
1215  33.575071
1214.8  31.835877
1214.6  30.370352
1214.4  32.574343
1214.2  33.751161
1214  31.923014
1213.8  33.886472
1213.6  32.542993
1213.4  33.711146
1213.2  32.471226
1213  30.528167
1212.8  31.936921
1212.6  33.64065
1212.4  32.578458
1212.2  31.465353
1212  31.372437
1211.8  30.841646
1211.6  29.909771
1211.4  29.132738
1211.2  31.88161
1211  33.510116
1210.8  30.401012
1210.6  32.039891
1210.4  33.89714
1210.2  34.259824
1210  31.390264
1209.8  30.498805
1209.6  30.546153
1209.4  31.018301
1209.2  32.715927
1209  33.077997
1208.8  30.660861
1208.6  33.139085
1208.4  31.398037
1208.2  32.372668
1208  33.176127
1207.8  31.339396
1207.6  33.596354
1207.4  32.00899
1207.2  33.094315
1207  32.850139
1206.8  32.784431
1206.6  33.516243
1206.4  34.13859
1206.2  31.921297
1206  32.853421
1205.8  33.937568
1205.6  30.28216
1205.4  31.04991
1205.2  32.075951
1205  29.555231
1204.8  30.11172
1204.6  33.536833
1204.4  34.402547
1204.2  32.258245
1204  30.918517
1203.8  34.176732
1203.6  33.750996
1203.4  33.658728
1203.2  37.415277
1203  32.401151
1202.8  34.040338
1202.6  31.146382
1202.4  32.610538
1202.2  33.279224
1202  32.123974
1201.8  32.876212
1201.6  31.728417
1201.4  31.20914
1201.2  30.480132
1201  31.58309
1200.8  30.156507
1200.6  30.823557
1200.4  31.135773
1200.2  33.363244
1200  31.386473
1199.8  31.300663
1199.6  31.006307
1199.4  33.643912
1199.2  30.618384
1199  30.115353
1198.8  31.837025
1198.6  29.925838
1198.4  33.026792
1198.2  32.01784
1198  30.600128
1197.8  33.725181
1197.6  32.105711
1197.4  32.060678
1197.2  33.902019
1197  31.03724
1196.8  28.226653
1196.6  31.011422
1196.4  32.043451
1196.2  31.201202
1196  31.682418
1195.8  32.026153
1195.6  31.472882
1195.4  31.563428
1195.2  32.937725
1195  33.614991
1194.8  32.975346
1194.6  32.640061
1194.4  32.366141
1194.2  34.423473
1194  34.301442
1193.8  34.037916
1193.6  33.920373
1193.4  31.768553
1193.2  33.071892
1193  29.818293
1192.8  35.301848
1192.6  31.333345
1192.4  29.988761
1192.2  32.786494
1192  32.026392
1191.8  30.148945
1191.6  30.472884
1191.4  29.84115
1191.2  33.898889
1191  33.603025
1190.8  32.950477
1190.6  32.95436
1190.4  32.694822
1190.2  32.755721
1190  35.091903
1189.8  35.454251
1189.6  30.699247
1189.4  28.892658
1189.2  31.188582
1189  30.056875
1188.8  32.01403
1188.6  31.656571
1188.4  34.219253
1188.2  30.705017
1188  33.205231
1187.8  31.92034
1187.6  32.647128
1187.4  31.449515
1187.2  30.279387
1187  33.724268
1186.8  35.260476
1186.6  33.054114
1186.4  31.025389
1186.2  33.798686
1186  32.888033
1185.8  33.262777
1185.6  32.374578
1185.4  32.41085
1185.2  34.755951
1185  34.690635
1184.8  32.507606
1184.6  30.218675
1184.4  29.473694
1184.2  30.587931
1184  30.999413
1183.8  31.755994
1183.6  31.763884
1183.4  32.336091
1183.2  30.720725
1183  31.537162
1182.8  31.466097
1182.6  33.920199
1182.4  30.393446
1182.2  32.711593
1182  33.498957
1181.8  32.854931
1181.6  30.98943
1181.4  32.574744
1181.2  34.728824
1181  33.950273
1180.8  33.137547
1180.6  30.107526
1180.4  30.301627
1180.2  30.632205
1180  31.576141
1179.8  33.550231
1179.6  32.278685
1179.4  30.216195
1179.2  31.658038
1179  31.651487
1178.8  35.118255
1178.6  31.761719
1178.4  32.39075
1178.2  33.973383
1178  35.021881
1177.8  31.323781
1177.6  30.370715
1177.4  31.684953
1177.2  33.076195
1177  32.584565
1176.8  31.265439
1176.6  30.557543
1176.4  30.711779
1176.2  31.330253
1176  33.658763
1175.8  30.885006
1175.6  26.767535
1175.4  29.84879
1175.2  32.234351
1175  31.008636
1174.8  33.633162
1174.6  31.220058
1174.4  33.468738
1174.2  32.934515
1174  33.222934
1173.8  32.263593
1173.6  32.99725
1173.4  32.37122
1173.2  33.102639
1173  31.128275
1172.8  31.93831
1172.6  32.425055
1172.4  33.21253
1172.2  30.156344
1172  31.914211
1171.8  32.501419
1171.6  31.660051
1171.4  31.878603
1171.2  32.547808
1171  32.914965
1170.8  32.010402
1170.6  31.559725
1170.4  32.602595
1170.2  33.13582
1170  34.46039
1169.8  31.024854
1169.6  31.611315
1169.4  31.928738
1169.2  31.152118
1169  31.967995
1168.8  31.877354
1168.6  32.098079
1168.4  37.183193
1168.2  34.667969
1168  34.888782
1167.8  34.759911
1167.6  33.714028
1167.4  34.31932
1167.2  30.73828
1167  32.86548
1166.8  34.084256
1166.6  31.324767
1166.4  31.13731
1166.2  33.161685
1166  34.77373
1165.8  31.823674
1165.6  29.464894
1165.4  31.256405
1165.2  30.890826
1165  33.455841
1164.8  31.851129
1164.6  32.453354
1164.4  33.239954
1164.2  32.857497
1164  33.434559
1163.8  31.714402
1163.6  32.752019
1163.4  33.340583
1163.2  33.10285
1163  34.339953
1162.8  31.802649
1162.6  34.102356
1162.4  33.124094
1162.2  33.566646
1162  30.915145
1161.8  32.406188
1161.6  33.48667
1161.4  31.807029
1161.2  30.879414
1161  30.282124
1160.8  31.174344
1160.6  32.400002
1160.4  30.87169
1160.2  30.431485
1160  33.19098
1159.8  34.164875
1159.6  32.88356
1159.4  29.173325
1159.2  32.533765
1159  33.286841
1158.8  31.610245
1158.6  30.038378
1158.4  31.775089
1158.2  32.205666
1158  33.157758
1157.8  34.330812
1157.6  31.936141
1157.4  32.729487
1157.2  32.254106
1157  32.137619
1156.8  33.19297
1156.6  33.544377
1156.4  35.140316
1156.2  35.377606
1156  33.900213
1155.8  32.670983
1155.6  36.947824
1155.4  33.266404
1155.2  33.667331
1155  34.48961
1154.8  33.358271
1154.6  30.920489
1154.4  29.206675
1154.2  29.840013
1154  32.444418
1153.8  33.418175
1153.6  31.411715
1153.4  32.695295
1153.2  33.608704
1153  33.533363
1152.8  35.136022
1152.6  35.433443
1152.4  33.764677
1152.2  32.653815
1152  34.290916
1151.8  34.437359
1151.6  32.429275
1151.4  34.191749
1151.2  31.610781
1151  36.143803
1150.8  36.290029
1150.6  35.784311
1150.4  34.346338
1150.2  32.905681
1150  32.365079
1149.8  30.925679
1149.6  34.522872
1149.4  31.912586
1149.2  33.015916
1149  31.751956
1148.8  34.787972
1148.6  35.060279
1148.4  33.221972
1148.2  33.316199
1148  33.144587
1147.8  34.142391
1147.6  33.240025
1147.4  32.603914
1147.2  30.645563
1147  32.303652
1146.8  34.153432
1146.6  33.252283
1146.4  31.137059
1146.2  31.090201
1146  33.880112
1145.8  31.705553
1145.6  31.610546
1145.4  34.51975
1145.2  32.834025
1145  33.12388
1144.8  33.055662
1144.6  31.998407
1144.4  31.453141
1144.2  34.064987
1144  32.054616
1143.8  33.103508
1143.6  35.324324
1143.4  32.393124
1143.2  33.777732
1143  35.359622
1142.8  35.132306
1142.6  31.710947
1142.4  31.610595
1142.2  32.100941
1142  31.748534
1141.8  32.256313
1141.6  35.620594
1141.4  32.575695
1141.2  33.520242
1141  33.029649
1140.8  33.340155
1140.6  33.918349
1140.4  33.672323
1140.2  32.66951
1140  36.937151
1139.8  35.514603
1139.6  32.732398
1139.4  30.822217
1139.2  32.407208
1139  32.427792
1138.8  32.096982
1138.6  31.122428
1138.4  33.509074
1138.2  33.488581
1138  32.68263
1137.8  33.76374
1137.6  32.731557
1137.4  32.135305
1137.2  32.402504
1137  32.65141
1136.8  34.545808
1136.6  32.688141
1136.4  34.034315
1136.2  31.927925
1136  32.29832
1135.8  33.547214
1135.6  33.289353
1135.4  31.656454
1135.2  31.855967
1135  32.699443
1134.8  33.233838
1134.6  31.405634
1134.4  32.252878
1134.2  32.958625
1134  33.254447
1133.8  34.948268
1133.6  33.181629
1133.4  32.96978
1133.2  32.999623
1133  34.328524
1132.8  34.123647
1132.6  33.428266
1132.4  31.096386
1132.2  30.839688
1132  34.986293
1131.8  34.416652
1131.6  34.807581
1131.4  34.178557
1131.2  33.727413
1131  30.492952
1130.8  32.712113
1130.6  31.818175
1130.4  32.35732
1130.2  34.205601
1130  32.966943
1129.8  35.095528
1129.6  33.237095
1129.4  35.263718
1129.2  30.900069
1129  33.590972
1128.8  33.143332
1128.6  35.289087
1128.4  34.322081
1128.2  37.474474
1128  34.803714
1127.8  32.55491
1127.6  34.52371
1127.4  33.662213
1127.2  34.885396
1127  33.672307
1126.8  32.222507
1126.6  34.32606
1126.4  37.066015
1126.2  33.980336
1126  32.864881
1125.8  33.375016
1125.6  35.326919
1125.4  33.893083
1125.2  34.044292
1125  35.852467
1124.8  35.297386
1124.6  33.58944
1124.4  32.59514
1124.2  32.372257
1124  33.726038
1123.8  37.086716
1123.6  33.639519
1123.4  33.791445
1123.2  33.312701
1123  31.240194
1122.8  30.920831
1122.6  33.776788
1122.4  34.741275
1122.2  33.552153
1122  36.142662
1121.8  37.582447
1121.6  33.479269
1121.4  35.054461
1121.2  36.208953
1121  34.898376
1120.8  33.784243
1120.6  33.463138
1120.4  34.762611
1120.2  36.963316
1120  36.522295
1119.8  33.846699
1119.6  32.600781
1119.4  35.386688
1119.2  34.325201
1119  34.105452
1118.8  35.537703
1118.6  35.132033
1118.4  34.261497
1118.2  33.791596
1118  33.855681
1117.8  32.710301
1117.6  33.453199
1117.4  33.788452
1117.2  34.712853
1117  36.084458
1116.8  34.631886
1116.6  33.908465
1116.4  35.138529
1116.2  36.003059
1116  35.333947
1115.8  34.120502
1115.6  34.192569
1115.4  33.147882
1115.2  32.926524
1115  32.522801
1114.8  35.392539
1114.6  35.782182
1114.4  33.37595
1114.2  34.06759
1114  35.869578
1113.8  33.428833
1113.6  35.130796
1113.4  33.618227
1113.2  33.464073
1113  34.258096
1112.8  37.4391
1112.6  34.585147
1112.4  31.301265
1112.2  32.789723
1112  36.194285
1111.8  32.298712
1111.6  35.025666
1111.4  34.847158
1111.2  31.346596
1111  33.173732
1110.8  32.48534
1110.6  35.880255
1110.4  35.575992
1110.2  32.797192
1110  33.599616
1109.8  34.216759
1109.6  35.291931
1109.4  31.960486
1109.2  34.625439
1109  33.623927
1108.8  33.929925
1108.6  35.364135
1108.4  35.270187
1108.2  30.602505
1108  32.045341
1107.8  31.609191
1107.6  32.086717
1107.4  33.745476
1107.2  32.711147
1107  34.305546
1106.8  32.883557
1106.6  35.441116
1106.4  35.286129
1106.2  32.651341
1106  33.676892
1105.8  36.786615
1105.6  37.228581
1105.4  32.551595
1105.2  31.442382
1105  33.205221
1104.8  32.211829
1104.6  32.779972
1104.4  33.098652
1104.2  32.931529
1104  33.471139
1103.8  32.914512
1103.6  33.40774
1103.4  34.184289
1103.2  35.409348
1103  36.958652
1102.8  37.129835
1102.6  33.495009
1102.4  34.824302
1102.2  33.949306
1102  34.448224
1101.8  34.133504
1101.6  34.55716
1101.4  36.780069
1101.2  34.819965
1101  37.282676
1100.8  35.224613
1100.6  34.745828
1100.4  38.519517
1100.2  40.253021
1100  38.348162
1099.8  39.786073
1099.6  37.878949
1099.4  36.292589
1099.2  36.496143
1099  35.231015
1098.8  36.125573
1098.6  39.867495
1098.4  41.16358
1098.2  39.644066
1098  37.396218
1097.8  37.349283
1097.6  38.354463
1097.4  37.33706
1097.2  40.961314
1097  39.019333
1096.8  38.982888
1096.6  40.342383
1096.4  39.04713
1096.2  38.254175
1096  37.729344
1095.8  36.916029
1095.6  39.47803
1095.4  39.739641
1095.2  37.656342
1095  37.363671
1094.8  39.31397
1094.6  37.528648
1094.4  35.836438
1094.2  36.622256
1094  35.964042
1093.8  34.787242
1093.6  34.016076
1093.4  33.166868
1093.2  31.680952
1093  33.58524
1092.8  33.24685
1092.6  32.31892
1092.4  29.869143
1092.2  32.222061
1092  33.744987
1091.8  36.935455
1091.6  33.859253
1091.4  35.18259
1091.2  33.386899
1091  33.422808
1090.8  32.949057
1090.6  30.125609
1090.4  29.836828
1090.2  32.27448
1090  32.804436
1089.8  31.605449
1089.6  31.384812
1089.4  32.74709
1089.2  31.190086
1089  31.096573
1088.8  31.300473
1088.6  29.4595
1088.4  29.17753
1088.2  30.62483
1088  30.724286
1087.8  27.81229
1087.6  29.806296
1087.4  30.1122
1087.2  31.844262
1087  28.629533
1086.8  29.87606
1086.6  32.878703
1086.4  31.700156
1086.2  30.316232
1086  30.968677
1085.8  31.931846
1085.6  29.549401
1085.4  29.128304
1085.2  30.719901
1085  27.441895
1084.8  28.763099
1084.6  30.25316
1084.4  31.779963
1084.2  33.218809
1084  29.61941
1083.8  29.246533
1083.6  29.540616
1083.4  28.856767
1083.2  29.835047
1083  32.751034
1082.8  28.221052
1082.6  27.793947
1082.4  30.478249
1082.2  30.968733
1082  29.562567
1081.8  30.956979
1081.6  30.415915
1081.4  30.288249
1081.2  30.43819
1081  30.854198
1080.8  30.311279
1080.6  30.156133
1080.4  29.596213
1080.2  28.167201
1080  31.74146
1079.8  31.69088
1079.6  30.251274
1079.4  28.823679
1079.2  30.166572
1079  32.027631
1078.8  30.978329
1078.6  29.148072
1078.4  29.857313
1078.2  28.039774
1078  30.561264
1077.8  29.921957
1077.6  27.213642
1077.4  27.192139
1077.2  29.353152
1077  28.419461
1076.8  29.282004
1076.6  28.884297
1076.4  30.082813
1076.2  29.606385
1076  31.420402
1075.8  31.787282
1075.6  31.469779
1075.4  30.145597
1075.2  29.443936
1075  29.984083
1074.8  27.680037
1074.6  29.454979
1074.4  30.701833
1074.2  33.012702
1074  29.96236
1073.8  29.775997
1073.6  27.726388
1073.4  29.423565
1073.2  29.932786
1073  29.359064
1072.8  29.483037
1072.6  30.789838
1072.4  30.624226
1072.2  27.623203
1072  31.749405
1071.8  31.77987
1071.6  31.992132
1071.4  31.412682
1071.2  32.303998
1071  32.059967
1070.8  29.951931
1070.6  30.796924
1070.4  32.291056
1070.2  30.764449
1070  30.320034
1069.8  31.512225
1069.6  30.702736
1069.4  30.109777
1069.2  30.498895
1069  27.658935
1068.8  27.516537
1068.6  30.723843
1068.4  29.395427
1068.2  31.682808
1068  28.817141
1067.8  29.956609
1067.6  31.462085
1067.4  29.401943
1067.2  31.33001
1067  30.049195
1066.8  28.096468
1066.6  29.722664
1066.4  29.31042
1066.2  31.724159
1066  33.106979
1065.8  30.090223
1065.6  28.53038
1065.4  29.062317
1065.2  29.667356
1065  29.396
1064.8  32.365707
1064.6  34.911913
1064.4  31.49627
1064.2  29.551246
1064  28.348812
1063.8  29.858812
1063.6  29.023132
1063.4  30.470597
1063.2  32.686443
1063  33.653606
1062.8  33.186713
1062.6  31.973906
1062.4  31.305926
1062.2  30.755957
1062  32.055728
1061.8  31.629555
1061.6  32.22856
1061.4  30.08006
1061.2  31.289604
1061  31.192416
1060.8  31.317991
1060.6  31.598289
1060.4  31.048088
1060.2  31.352375
1060  30.538501
1059.8  29.341095
1059.6  27.061259
1059.4  29.358135
1059.2  31.814615
1059  31.250811
1058.8  31.21334
1058.6  30.399295
1058.4  29.866444
1058.2  31.712977
1058  29.521063
1057.8  31.790392
1057.6  30.60375
1057.4  29.53623
1057.2  32.440034
1057  34.370357
1056.8  31.54398
1056.6  29.670159
1056.4  31.974976
1056.2  30.86842
1056  30.598838
1055.8  31.302265
1055.6  33.004531
1055.4  32.028752
1055.2  29.885547
1055  29.158033
1054.8  28.719348
1054.6  31.497863
1054.4  30.794585
1054.2  31.210241
1054  29.337971
1053.8  29.635789
1053.6  32.433612
1053.4  32.584594
1053.2  29.028534
1053  29.004665
1052.8  31.253137
1052.6  33.498148
1052.4  30.645244
1052.2  29.52899
1052  30.575224
1051.8  32.295023
1051.6  31.138252
1051.4  32.635724
1051.2  31.877175
1051  29.717395
1050.8  29.191396
1050.6  30.167564
1050.4  29.919092
1050.2  32.416849
1050  32.112663
1049.8  32.39452
1049.6  32.989292
1049.4  31.087191
1049.2  30.886869
1049  31.273933
1048.8  33.107014
1048.6  31.28965
1048.4  32.484721
1048.2  32.727666
1048  28.731811
1047.8  31.768174
1047.6  32.604132
1047.4  31.906762
1047.2  30.086463
1047  31.352497
1046.8  32.295939
1046.6  31.303458
1046.4  32.889844
1046.2  30.636183
1046  32.073104
1045.8  30.112993
1045.6  30.105579
1045.4  32.2812
1045.2  30.626365
1045  32.825613
1044.8  33.14366
1044.6  34.623581
1044.4  31.029604
1044.2  31.222221
1044  32.292614
1043.8  30.733148
1043.6  29.728448
1043.4  30.813355
1043.2  32.991596
1043  31.957353
1042.8  31.183592
1042.6  28.821037
1042.4  29.741465
1042.2  30.095935
1042  32.11699
1041.8  30.690765
1041.6  31.742008
1041.4  30.283307
1041.2  32.315895
1041  31.210294
1040.8  32.022345
1040.6  30.554065
1040.4  29.568421
1040.2  30.147139
1040  33.099128
1039.8  36.540742
1039.6  33.026307
1039.4  32.274466
1039.2  31.58246
1039  31.960196
1038.8  32.924965
1038.6  32.514824
1038.4  30.486765
1038.2  34.073922
1038  33.221655
1037.8  33.57334
1037.6  31.609475
1037.4  30.928808
1037.2  29.853883
1037  31.505304
1036.8  31.242527
1036.6  34.299267
1036.4  32.221342
1036.2  32.316848
1036  34.97356
1035.8  33.072745
1035.6  32.361718
1035.4  31.656806
1035.2  32.032177
1035  31.748705
1034.8  31.403293
1034.6  33.485331
1034.4  35.22016
1034.2  32.699449
1034  33.34719
1033.8  32.805052
1033.6  30.754563
1033.4  33.687861
1033.2  35.014145
1033  33.44405
1032.8  31.899221
1032.6  31.043652
1032.4  31.24417
1032.2  32.387173
1032  34.122952
1031.8  31.736024
1031.6  33.241412
1031.4  35.077744
1031.2  31.803917
1031  32.268527
1030.8  33.518283
1030.6  34.579532
1030.4  34.345311
1030.2  33.298085
1030  32.921105
1029.8  31.960032
1029.6  32.517937
1029.4  30.879596
1029.2  32.70203
1029  33.720726
1028.8  34.451805
1028.6  34.697131
1028.4  33.126157
1028.2  34.752925
1028  33.130015
1027.8  29.904286
1027.6  30.247268
1027.4  32.069606
1027.2  32.017855
1027  35.06585
1026.8  32.250255
1026.6  32.251501
1026.4  34.195236
1026.2  34.17397
1026  35.628542
1025.8  30.859962
1025.6  33.100812
1025.4  33.643023
1025.2  33.169494
1025  35.80858
1024.8  35.643652
1024.6  29.247701
1024.4  29.844185
1024.2  30.451605
1024  34.538874
1023.8  31.814378
1023.6  32.354912
1023.4  33.001577
1023.2  34.779894
1023  32.289838
1022.8  33.75486
1022.6  34.148477
1022.4  33.163276
1022.2  32.967331
1022  33.123868
1021.8  33.920586
1021.6  32.416222
1021.4  34.441966
1021.2  35.781258
1021  33.156945
1020.8  31.830319
1020.6  31.945964
1020.4  32.53008
1020.2  33.080509
1020  33.325454
1019.8  35.292194
1019.6  35.80551
1019.4  36.13034
1019.2  34.933244
1019  31.448902
1018.8  33.078269
1018.6  34.980532
1018.4  36.960596
1018.2  35.019473
1018  32.143947
1017.8  34.779993
1017.6  37.638386
1017.4  34.980982
1017.2  36.246628
1017  33.901244
1016.8  34.639008
1016.6  31.51922
1016.4  32.186738
1016.2  35.417273
1016  33.282902
1015.8  35.741349
1015.6  37.122073
1015.4  38.868099
1015.2  37.195082
1015  35.990305
1014.8  35.639447
1014.6  33.668314
1014.4  33.367193
1014.2  35.048486
1014  34.788766
1013.8  34.188012
1013.6  33.192486
1013.4  33.506517
1013.2  35.976717
1013  34.336894
1012.8  35.061777
1012.6  38.919695
1012.4  33.981793
1012.2  33.893439
1012  33.455236
1011.8  36.568374
1011.6  37.590814
1011.4  34.680402
1011.2  37.035112
1011  34.077858
1010.8  35.253031
1010.6  34.193628
1010.4  36.787459
1010.2  36.057232
1010  33.690763
1009.8  33.718914
1009.6  36.58139
1009.4  33.108501
1009.2  35.798402
1009  36.173455
1008.8  35.540087
1008.6  38.5629
1008.4  33.932538
1008.2  35.440149
1008  36.405678
1007.8  35.350622
1007.6  34.374733
1007.4  36.064076
1007.2  36.774497
1007  35.308435
1006.8  34.571923
1006.6  37.328304
1006.4  35.788179
1006.2  35.323409
1006  35.067481
1005.8  36.018597
1005.6  34.256829
1005.4  33.491874
1005.2  35.361919
1005  34.317245
1004.8  37.402708
1004.6  35.727343
1004.4  38.556023
1004.2  37.780366
1004  36.968273
1003.8  36.622638
1003.6  38.145282
1003.4  36.302388
1003.2  34.009107
1003  36.647652
1002.8  35.118128
1002.6  35.970953
1002.4  35.082513
1002.2  34.742076
1002  35.710991
1001.8  37.818376
1001.6  37.108118
1001.4  38.489372
1001.2  36.483344
1001  36.735045
1000.8  36.203224
1000.6  35.335952
1000.4  36.33411
1000.2  40.630166
1000  36.838437
999.8  34.985561
999.6  36.261633
999.4  38.179895
999.2  38.435602
999  37.479217
998.8  38.505372
998.6  39.956073
998.4  40.54194
998.2  38.289892
998  37.055921
997.8  37.898477
997.6  38.232259
997.4  39.22206
997.2  38.24582
997  38.930458
996.8  39.69117
996.6  39.409444
996.4  37.528036
996.2  37.511633
996  36.243127
995.8  40.884203
995.6  40.909647
995.4  36.890809
995.2  40.071776
995  38.557786
994.8  39.085883
994.6  35.582714
994.4  36.268418
994.2  37.897899
994  35.967574
993.8  38.164462
993.6  39.031179
993.4  38.872831
993.2  37.930645
993  38.486034
992.8  38.97041
992.6  38.529233
992.4  39.087016
992.2  39.495734
992  37.967409
991.8  40.070018
991.6  41.466736
991.4  40.161758
991.2  39.801114
991  42.820894
990.8  41.907452
990.6  39.876955
990.4  42.279563
990.2  41.009331
990  40.659375
989.8  40.171291
989.6  37.324511
989.4  39.004758
989.2  41.523078
989  40.902452
988.8  38.671141
988.6  38.30777
988.4  38.104674
988.2  39.146722
988  40.422064
987.8  42.399547
987.6  39.946881
987.4  36.506281
987.2  38.288608
987  42.555899
986.8  39.599903
986.6  37.2456
986.4  40.262917
986.2  41.09783
986  39.720795
985.8  42.398871
985.6  38.279014
985.4  37.385063
985.2  37.455283
985  37.422238
984.8  37.487955
984.6  41.28541
984.4  41.152494
984.2  40.833427
984  37.413768
983.8  40.017425
983.6  40.883499
983.4  42.471913
983.2  42.206426
983  42.423916
982.8  40.36452
982.6  40.395895
982.4  41.051259
982.2  40.875745
982  42.634832
981.8  43.073932
981.6  40.925036
981.4  40.870922
981.2  42.898761
981  41.978879
980.8  41.94258
980.6  40.339569
980.4  44.088609
980.2  41.41768
980  40.495098
979.8  42.339877
979.6  41.889966
979.4  40.894603
979.2  42.937042
979  43.516245
978.8  43.783982
978.6  42.546134
978.4  41.642314
978.2  42.294867
978  43.106728
977.8  39.951301
977.6  41.082703
977.4  43.646595
977.2  41.960206
977  40.271704
976.8  40.594371
976.6  42.361513
976.4  43.899602
976.2  46.871431
976  43.052274
975.8  42.815363
975.6  41.674109
975.4  42.3807
975.2  45.521626
975  46.385447
974.8  44.248208
974.6  45.13159
974.4  44.006423
974.2  45.644574
974  43.297842
973.8  42.224253
973.6  42.918774
973.4  41.773218
973.2  41.095656
973  41.572206
972.8  44.457527
972.6  43.33878
972.4  45.070738
972.2  43.205533
972  48.001292
971.8  44.524423
971.6  42.518467
971.4  44.03789
971.2  45.529399
971  45.303432
970.8  43.111033
970.6  40.857169
970.4  42.564438
970.2  44.760102
970  46.026178
969.8  46.64667
969.6  45.468872
969.4  44.079469
969.2  46.332233
969  43.804987
968.8  43.743823
968.6  43.547526
968.4  44.661275
968.2  43.241671
968  43.664822
967.8  41.715617
967.6  42.025098
967.4  46.976916
967.2  47.123189
967  42.769756
966.8  44.284033
966.6  41.908599
966.4  39.527949
966.2  42.15559
966  44.598754
965.8  45.849587
965.6  45.973209
965.4  46.461068
965.2  45.271149
965  44.972802
964.8  43.234627
964.6  45.005374
964.4  43.219215
964.2  42.848002
964  42.719821
963.8  42.018982
963.6  41.689854
963.4  43.500132
963.2  42.701135
963  44.733188
962.8  42.521574
962.6  43.841499
962.4  42.118733
962.2  45.326563
962  42.778881
961.8  38.455599
961.6  40.269098
961.4  41.00894
961.2  42.217626
961  41.543269
960.8  39.389108
960.6  45.354418
960.4  44.447331
960.2  37.923914
960  41.61617
959.8  40.360821
959.6  43.178249
959.4  43.926461
959.2  42.747393
959  42.255854
958.8  41.353061
958.6  41.096689
958.4  42.994193
958.2  42.400341
958  42.591713
957.8  43.613163
957.6  42.709336
957.4  44.950007
957.2  49.719494
957  47.200961
956.8  47.426473
956.6  46.228985
956.4  44.102958
956.2  47.677103
956  47.23635
955.8  49.220282
955.6  50.982613
955.4  49.604538
955.2  47.700717
955  48.755322
954.8  53.705015
954.6  53.880474
954.4  56.15484
954.2  59.879558
954  64.075125
953.8  68.154213
953.6  74.994797
953.4  92.714996
953.2  107.97834
953  129.75644
952.8  141.70975
952.6  156.31766
952.4  141.56112
952.2  121.37413
952  103.41967
951.8  81.770099
951.6  66.409967
951.4  60.816494
951.2  55.872963
951  51.35184
950.8  48.855639
950.6  45.23039
950.4  40.349969
950.2  39.554939
950  39.557884
949.8  38.832388
949.6  38.964464
949.4  39.606764
949.2  39.717655
949  37.608046
948.8  33.85858
948.6  37.379801
948.4  38.735075
948.2  35.38276
948  37.985842
947.8  36.490597
947.6  32.750245
947.4  34.324201
947.2  33.746542
947  33.58817
946.8  32.805613
946.6  37.033135
946.4  35.15526
946.2  37.212153
946  35.419502
945.8  33.791377
945.6  33.1331
945.4  33.26815
945.2  34.414004
945  33.027714
944.8  32.913023
944.6  35.019162
944.4  31.354365
944.2  32.055196
944  32.932519
943.8  32.340379
943.6  32.430619
943.4  32.59744
943.2  30.355526
943  29.527394
942.8  29.058402
942.6  29.319526
942.4  31.869205
942.2  28.220122
942  27.381369
941.8  28.464368
941.6  27.186511
941.4  27.945152
941.2  25.838797
941  28.054092
940.8  27.389364
940.6  27.924763
940.4  27.468762
940.2  28.992742
940  26.544638
939.8  26.110012
939.6  28.665454
939.4  29.889345
939.2  25.505114
939  27.077531
938.8  29.075572
938.6  28.075824
938.4  29.242541
938.2  28.201113
938  27.432389
937.8  25.226134
937.6  27.692853
937.4  27.913771
937.2  29.031425
937  32.005207
936.8  32.578544
936.6  31.694073
936.4  30.455162
936.2  32.536333
936  32.741273
935.8  33.348105
935.6  33.54077
935.4  34.297374
935.2  32.972152
935  33.137108
934.8  35.518045
934.6  40.482014
934.4  43.173462
934.2  52.925706
934  59.926459
933.8  74.098625
933.6  105.43078
933.4  184.43789
933.2  303.38721
933  450.21066
932.8  525.8437
932.6  467.9443
932.4  281.50082
932.2  151.76376
932  87.819275
931.8  57.063818
931.6  40.275321
931.4  34.080276
931.2  29.780887
931  26.433272
930.8  21.498922
930.6  21.874805
930.4  21.463276
930.2  19.740268
930  21.410866
929.8  18.709547
929.6  17.127686
929.4  18.156213
929.2  19.502885
929  18.29419
928.8  17.8456
928.6  18.539424
928.4  17.571053
928.2  16.690481
928  16.962639
927.8  17.210015
927.6  16.7268
927.4  15.77144
927.2  17.069284
927  17.797863
926.8  17.394368
926.6  14.441787
926.4  16.800141
926.2  18.092695
926  17.3024
925.8  16.655159
925.6  16.921958
925.4  17.784762
925.2  15.678264
925  17.106618
924.8  16.727958
924.6  17.137341
924.4  15.702586
924.2  16.784699
924  17.806688
923.8  17.370365
923.6  16.477215
923.4  15.211826
923.2  17.174353
923  17.293741
922.8  17.316696
922.6  15.480282
922.4  15.058965
922.2  16.02887
922  16.25426
921.8  16.374893
921.6  17.060419
921.4  15.286757
921.2  14.86564
921  16.301021
920.8  16.427334
920.6  16.015645
920.4  15.608057
920.2  16.650531
920  17.207322
919.8  15.227305
919.6  16.495084
919.4  17.82117
919.2  16.85111
919  15.371617
918.8  17.22006
918.6  15.792921
918.4  18.043435
918.2  17.732093
918  17.773614
917.8  16.465064
917.6  17.299796
917.4  17.054043
917.2  18.09121
917  17.629516
916.8  16.227318
916.6  15.264276
916.4  17.126476
916.2  15.389303
916  15.908318
915.8  14.432743
915.6  15.315321
915.4  17.408496
915.2  18.105346
915  17.703147
914.8  15.797842
914.6  15.130057
914.4  16.664998
914.2  16.373588
914  17.410714
913.8  16.694174
913.6  16.005174
913.4  17.462832
913.2  17.796932
913  17.29856
912.8  16.8978
912.6  18.431621
912.4  15.530221
912.2  17.329011
912  16.459948
911.8  17.86723
911.6  17.884101
911.4  17.02161
911.2  16.577861
911  15.804999
910.8  18.491227
910.6  18.008133
910.4  18.282496
910.2  18.38869
910  16.742432
909.8  16.788971
909.6  15.513136
909.4  17.953546
909.2  16.494925
909  15.281607
908.8  15.587618
908.6  17.013666
908.4  16.427297
908.2  16.957565
908  17.660885
907.8  16.539219
907.6  16.911965
907.4  16.202521
907.2  15.711076
907  15.312963
906.8  18.681941
906.6  17.28462
906.4  18.512925
906.2  18.137159
906  17.251176
905.8  18.622188
905.6  16.692135
905.4  14.950239
905.2  14.702794
905  14.712298
904.8  16.9393
904.6  17.623634
904.4  17.008302
904.2  17.511922
904  17.613711
903.8  16.40012
903.6  18.070409
903.4  16.957168
903.2  16.622042
903  16.941945
902.8  16.579562
902.6  15.842338
902.4  14.112277
902.2  17.115271
902  16.735232
901.8  17.524307
901.6  17.50299
901.4  18.283134
901.2  17.026436
901  17.056029
900.8  16.162301
900.6  17.373988
900.4  17.35991
900.2  16.766537
900  16.374412
899.8  18.793581
899.6  18.920282
899.4  17.960684
899.2  17.218496
899  18.739315
898.8  18.450467
898.6  16.491058
898.4  17.876703
898.2  16.658468
898  17.558929
897.8  17.170527
897.6  18.619663
897.4  16.139325
897.2  15.873306
897  17.110982
896.8  16.169771
896.6  19.26389
896.4  17.990292
896.2  16.376167
896  17.068671
895.8  17.152755
895.6  18.402824
895.4  16.460289
895.2  16.877177
895  15.813534
894.8  17.285295
894.6  19.139532
894.4  19.055959
894.2  15.954393
894  19.705093
893.8  18.917087
893.6  18.050029
893.4  18.538747
893.2  16.691256
893  17.033431
892.8  17.454765
892.6  18.844501
892.4  18.785639
892.2  19.815157
892  17.626156
891.8  15.809307
891.6  17.43357
891.4  16.979344
891.2  17.991754
891  16.243053
890.8  18.233402
890.6  17.706908
890.4  17.925337
890.2  16.052234
890  17.748814
889.8  18.44537
889.6  18.552094
889.4  19.58899
889.2  17.745995
889  18.577122
888.8  16.809283
888.6  16.374325
888.4  17.841567
888.2  18.833534
888  18.537282
887.8  18.216312
887.6  19.428016
887.4  17.665624
887.2  17.688613
887  18.536498
886.8  19.481151
886.6  19.117477
886.4  17.509966
886.2  17.256194
886  17.801
885.8  18.309827
885.6  19.753455
885.4  16.617796
885.2  16.411819
885  16.060828
884.8  18.200183
884.6  18.197311
884.4  20.654341
884.2  18.240945
884  19.140833
883.8  18.501443
883.6  18.019803
883.4  17.076446
883.2  18.048719
883  16.791957
882.8  18.984469
882.6  17.431306
882.4  17.478164
882.2  15.979803
882  17.509558
881.8  17.404196
881.6  19.490321
881.4  16.898356
881.2  16.966567
881  17.724732
880.8  19.15474
880.6  17.39531
880.4  18.457729
880.2  18.796851
880  19.054684
879.8  18.428403
879.6  18.638957
879.4  16.651749
879.2  17.28277
879  19.766371
878.8  18.032499
878.6  17.617013
878.4  18.119683
878.2  18.649378
878  17.87266
877.8  17.694019
877.6  18.184016
877.4  17.870595
877.2  16.993109
877  17.842886
876.8  15.974716
876.6  18.341668
876.4  19.042795
876.2  19.968722
876  18.466259
875.8  18.245023
875.6  17.359941
875.4  18.498659
875.2  19.359052
875  18.575413
874.8  16.52502
874.6  18.494842
874.4  19.54307
874.2  21.08501
874  19.057345
873.8  20.008486
873.6  17.824565
873.4  18.719033
873.2  16.640078
873  18.309693
872.8  18.877637
872.6  17.384152
872.4  18.935126
872.2  19.685009
872  19.211488
871.8  18.908297
871.6  20.748981
871.4  19.568878
871.2  20.545639
871  19.824257
870.8  20.410336
870.6  17.834595
870.4  19.158537
870.2  17.085144
870  19.32661
869.8  20.102105
869.6  19.131523
869.4  19.218238
869.2  18.537318
869  18.368846
868.8  18.680402
868.6  19.375179
868.4  19.995434
868.2  18.342666
868  18.239924
867.8  18.106915
867.6  18.134905
867.4  18.32326
867.2  18.974147
867  19.713595
866.8  18.209339
866.6  19.133475
866.4  18.681147
866.2  18.707353
866  16.922535
865.8  18.014829
865.6  19.002753
865.4  20.602741
865.2  20.228041
865  20.912423
864.8  19.851912
864.6  18.996611
864.4  21.052375
864.2  18.357714
864  19.167366
863.8  18.247353
863.6  18.311233
863.4  18.565974
863.2  21.534984
863  21.109296
862.8  20.641943
862.6  19.086964
862.4  20.895926
862.2  18.585737
862  18.742662
861.8  18.535155
861.6  20.139603
861.4  22.162199
861.2  20.064565
861  19.885037
860.8  20.529635
860.6  19.487201
860.4  18.326828
860.2  18.67326
860  20.254749
859.8  21.415251
859.6  20.302025
859.4  18.271652
859.2  18.277309
859  19.071376
858.8  19.338651
858.6  18.907943
858.4  18.190395
858.2  19.792054
858  20.035593
857.8  20.95796
857.6  20.570154
857.4  19.788622
857.2  19.61509
857  20.308075
856.8  18.546612
856.6  18.652996
856.4  21.725276
856.2  18.777644
856  21.11363
855.8  20.658329
855.6  20.056495
855.4  19.253528
855.2  21.309726
855  18.527954
854.8  19.41736
854.6  20.792725
854.4  22.144866
854.2  22.539666
854  20.746255
853.8  20.284977
853.6  22.48408
853.4  20.372595
853.2  19.631018
853  17.292696
852.8  21.590181
852.6  20.52801
852.4  18.139852
852.2  18.629376
852  19.409592
851.8  20.069861
851.6  19.974719
851.4  20.497436
851.2  22.502697
851  22.570369
850.8  21.498866
850.6  20.122922
850.4  19.067685
850.2  20.751771
850  18.80305
849.8  19.415063
849.6  21.156849
849.4  20.855665
849.2  20.024514
849  20.662468
848.8  21.104297
848.6  19.9562
848.4  22.374279
848.2  19.95251
848  19.93569
847.8  20.656647
847.6  19.690726
847.4  20.76967
847.2  20.59028
847  20.999129
846.8  19.624415
846.6  21.510215
846.4  21.419041
846.2  20.267689
846  21.030854
845.8  19.291987
845.6  19.342466
845.4  19.930994
845.2  21.273974
845  20.140402
844.8  19.321626
844.6  18.582685
844.4  19.67567
844.2  19.005502
844  17.868337
843.8  18.402149
843.6  19.779867
843.4  20.762683
843.2  21.503499
843  20.63737
842.8  20.771825
842.6  20.615839
842.4  21.497466
842.2  20.74816
842  24.368638
841.8  23.523059
841.6  22.792155
841.4  21.509462
841.2  20.187427
841  21.601191
840.8  17.058122
840.6  20.659829
840.4  19.833901
840.2  21.176597
840  19.318755
839.8  20.567771
839.6  21.324755
839.4  20.492606
839.2  21.39703
839  23.207528
838.8  20.276575
838.6  20.237469
838.4  20.860266
838.2  23.915166
838  21.847397
837.8  22.721286
837.6  23.02249
837.4  22.750849
837.2  18.931889
837  22.201452
836.8  20.010027
836.6  21.974361
836.4  22.342425
836.2  21.82504
836  21.651034
835.8  20.825282
835.6  19.539948
835.4  19.999696
835.2  21.178851
835  20.684585
834.8  20.189978
834.6  20.47075
834.4  20.150183
834.2  23.391001
834  22.088549
833.8  22.335678
833.6  21.394334
833.4  20.264351
833.2  20.7108
833  21.41657
832.8  21.175775
832.6  21.676446
832.4  20.810919
832.2  22.057321
832  22.385751
831.8  22.33763
831.6  22.274426
831.4  19.241662
831.2  22.773181
831  21.870263
830.8  21.532381
830.6  22.313755
830.4  24.409461
830.2  23.327039
830  20.961085
829.8  21.345697
829.6  22.262245
829.4  21.814127
829.2  22.057325
829  21.317372
828.8  21.621748
828.6  22.526439
828.4  21.232043
828.2  22.160616
828  23.103459
827.8  23.28226
827.6  23.11048
827.4  21.765782
827.2  20.587488
827  21.755935
826.8  19.900795
826.6  22.130588
826.4  20.831464
826.2  22.001368
826  22.025674
825.8  22.067869
825.6  21.412743
825.4  22.41329
825.2  20.563543
825  22.064258
824.8  20.501892
824.6  21.858718
824.4  24.545946
824.2  21.139186
824  21.622044
823.8  21.709318
823.6  23.178147
823.4  23.595411
823.2  21.875409
823  25.548859
822.8  23.884213
822.6  21.0664
822.4  23.415604
822.2  21.723218
822  20.507368
821.8  21.375434
821.6  22.99829
821.4  22.477409
821.2  23.070522
821  21.725405
820.8  20.504313
820.6  21.774788
820.4  23.818647
820.2  23.517814
820  20.84498
819.8  20.806986
819.6  23.42766
819.4  24.806004
819.2  23.636128
819  23.399257
818.8  22.037925
818.6  23.952145
818.4  22.349
818.2  22.845469
818  24.289344
817.8  22.351192
817.6  21.869529
817.4  23.894982
817.2  22.278377
817  21.577942
816.8  21.743797
816.6  24.38938
816.4  22.988302
816.2  23.124581
816  24.557765
815.8  26.600639
815.6  25.396445
815.4  24.542282
815.2  25.119609
815  25.385607
814.8  25.474483
814.6  24.05196
814.4  22.93629
814.2  21.276056
814  22.076614
813.8  23.414484
813.6  21.425639
813.4  23.620973
813.2  23.096762
813  22.827338
812.8  23.132953
812.6  23.877762
812.4  26.527837
812.2  22.740743
812  21.332679
811.8  22.579858
811.6  21.519223
811.4  24.347413
811.2  25.839034
811  23.799098
810.8  23.774901
810.6  24.884836
810.4  24.676219
810.2  23.081343
810  23.574213
809.8  23.422494
809.6  28.084878
809.4  23.260537
809.2  22.257189
809  24.60273
808.8  23.03733
808.6  24.443929
808.4  22.541783
808.2  22.850151
808  24.04569
807.8  22.587671
807.6  24.74985
807.4  22.873066
807.2  22.264553
807  26.43896
806.8  24.185246
806.6  24.499039
806.4  22.787474
806.2  24.179381
806  24.47474
805.8  25.78243
805.6  23.717554
805.4  22.30643
805.2  23.663647
805  25.485382
804.8  22.979887
804.6  24.383309
804.4  22.522663
804.2  23.18695
804  25.27439
803.8  23.455982
803.6  25.939208
803.4  24.866328
803.2  24.740989
803  25.500389
802.8  24.262681
802.6  25.72885
802.4  24.494849
802.2  24.161276
802  24.067732
801.8  23.903468
801.6  25.712339
801.4  24.818108
801.2  25.67061
801  25.291893
800.8  23.61915
800.6  23.797718
800.4  24.479299
800.2  23.766288
800  24.36121
799.8  25.011403
799.6  26.141796
799.4  24.039017
799.2  23.065229
799  23.592719
798.8  22.99311
798.6  24.28089
798.4  24.363032
798.2  24.942915
798  23.96937
797.8  24.829764
797.6  25.512877
797.4  23.66079
797.2  25.680456
797  28.695405
796.8  25.528684
796.6  24.201273
796.4  25.312283
796.2  24.866075
796  24.97206
795.8  23.592462
795.6  26.988934
795.4  25.819843
795.2  26.134913
795  25.806777
794.8  24.892281
794.6  22.976027
794.4  24.953223
794.2  25.01272
794  23.702552
793.8  25.029415
793.6  23.358594
793.4  23.735473
793.2  25.220143
793  27.881786
792.8  25.443672
792.6  24.01305
792.4  27.605343
792.2  23.873247
792  26.030479
791.8  26.379689
791.6  25.77934
791.4  24.944163
791.2  25.145593
791  27.605245
790.8  29.802208
790.6  25.639164
790.4  24.35148
790.2  24.960683
790  25.537149
789.8  25.03377
789.6  26.343589
789.4  28.748826
789.2  24.529439
789  23.857209
788.8  25.973759
788.6  27.266817
788.4  27.452359
788.2  25.967057
788  24.351605
787.8  24.777137
787.6  26.706257
787.4  25.310043
787.2  24.741805
787  23.97767
786.8  24.034925
786.6  23.941435
786.4  27.427324
786.2  26.006239
786  27.516074
785.8  27.50512
785.6  26.132153
785.4  26.334038
785.2  23.867412
785  25.46569
784.8  25.803238
784.6  25.088052
784.4  25.966663
784.2  24.163219
784  27.189725
783.8  26.3524
783.6  26.433892
783.4  28.689115
783.2  28.901407
783  26.656452
782.8  25.262944
782.6  25.874177
782.4  26.82859
782.2  27.859924
782  25.511159
781.8  25.829552
781.6  26.042087
781.4  26.092333
781.2  24.424996
781  23.999607
780.8  26.811751
780.6  27.374681
780.4  24.787733
780.2  28.852139
780  28.251116
779.8  31.098328
779.6  27.071582
779.4  24.68921
779.2  24.464323
779  26.245514
778.8  27.444057
778.6  28.760003
778.4  25.980577
778.2  28.112991
778  27.914916
777.8  27.507678
777.6  27.302774
777.4  25.290125
777.2  25.998908
777  28.592814
776.8  28.82812
776.6  26.720952
776.4  26.996078
776.2  28.334118
776  25.707018
775.8  24.975847
775.6  26.318569
775.4  30.158269
775.2  28.033654
775  26.494649
774.8  26.566587
774.6  26.399592
774.4  29.679962
774.2  27.700602
774  24.983744
773.8  28.198861
773.6  29.323376
773.4  29.571175
773.2  29.720316
773  29.56509
772.8  27.41886
772.6  27.54813
772.4  29.876143
772.2  28.275345
772  29.051987
771.8  30.397943
771.6  30.753011
771.4  26.719748
771.2  29.494665
771  28.956763
770.8  29.045222
770.6  28.073166
770.4  28.226268
770.2  29.782313
770  29.625904
769.8  28.070267
769.6  28.674802
769.4  27.381168
769.2  26.746889
769  29.632876
768.8  32.846612
768.6  29.706592
768.4  29.714121
768.2  29.600428
768  32.506585
767.8  31.157642
767.6  27.909738
767.4  28.671727
767.2  30.610737
767  29.240361
766.8  28.397606
766.6  28.476766
766.4  30.991027
766.2  30.876936
766  27.335804
765.8  30.300832
765.6  25.945226
765.4  26.11797
765.2  27.624506
765  28.079766
764.8  30.719454
764.6  29.352841
764.4  28.326114
764.2  30.242125
764  29.076409
763.8  32.275552
763.6  31.873552
763.4  27.972593
763.2  26.47142
763  27.204953
762.8  27.403855
762.6  26.667093
762.4  30.078053
762.2  27.831535
762  30.413783
761.8  29.76392
761.6  29.544006
761.4  28.259636
761.2  28.063988
761  27.204065
760.8  28.611498
760.6  26.507348
760.4  26.536728
760.2  28.600648
760  29.011917
759.8  29.392778
759.6  29.141043
759.4  29.597753
759.2  30.966168
759  29.277484
758.8  32.760396
758.6  31.073166
758.4  30.179605
758.2  29.340462
758  28.74868
757.8  27.797028
757.6  29.206943
757.4  30.244403
757.2  29.171288
757  30.159443
756.8  28.435793
756.6  30.557629
756.4  30.172019
756.2  29.468788
756  29.175865
755.8  31.47548
755.6  30.173709
755.4  30.698837
755.2  30.586416
755  34.194103
754.8  31.268378
754.6  29.095881
754.4  30.4694
754.2  30.631501
754  30.609784
753.8  29.814318
753.6  30.060691
753.4  28.578456
753.2  26.776376
753  29.023589
752.8  27.432905
752.6  27.942512
752.4  31.491872
752.2  30.698721
752  27.733312
751.8  28.087243
751.6  27.916943
751.4  27.896833
751.2  27.364859
751  29.493367
750.8  29.44295
750.6  30.085962
750.4  32.79435
750.2  28.788836
750  30.868429
749.8  28.795812
749.6  26.938752
749.4  28.563239
749.2  30.121649
749  30.29926
748.8  29.18555
748.6  30.251678
748.4  29.360741
748.2  27.090796
748  29.928544
747.8  28.927457
747.6  27.450306
747.4  28.52685
747.2  28.715069
747  28.17137
746.8  28.62474
746.6  31.36408
746.4  29.692549
746.2  30.567435
746  29.020244
745.8  31.419667
745.6  29.305769
745.4  28.941716
745.2  29.334746
745  28.789382
744.8  30.527024
744.6  26.632614
744.4  29.603425
744.2  29.808087
744  30.391388
743.8  27.260323
743.6  30.146245
743.4  28.424748
743.2  28.798855
743  26.351444
742.8  30.078168
742.6  31.267061
742.4  30.314716
742.2  27.853208
742  29.93166
741.8  30.291462
741.6  30.737882
741.4  29.578603
741.2  29.417123
741  30.887937
740.8  31.232202
740.6  32.183132
740.4  31.843789
740.2  29.117928
740  31.586984
739.8  28.105566
739.6  27.866894
739.4  29.916489
739.2  29.57923
739  29.135565
738.8  31.985669
738.6  30.054847
738.4  31.354326
738.2  31.452906
738  27.774588
737.8  29.250281
737.6  32.987551
737.4  32.071479
737.2  31.174264
737  29.477122
736.8  28.951588
736.6  28.258962
736.4  31.216731
736.2  29.995387
736  31.310163
735.8  28.815705
735.6  30.281593
735.4  28.948277
735.2  29.856064
735  28.464066
734.8  29.016499
734.6  31.495723
734.4  30.580365
734.2  28.865263
734  30.220108
733.8  32.215181
733.6  30.937653
733.4  29.607969
733.2  30.863877
733  30.326128
732.8  30.57653
732.6  32.224019
732.4  31.467469
732.2  29.777166
732  29.056073
731.8  32.753227
731.6  34.318825
731.4  30.918945
731.2  29.75319
731  31.661596
730.8  32.847698
730.6  32.004965
730.4  33.938757
730.2  32.501465
730  30.749074
729.8  30.181318
729.6  30.411489
729.4  29.127474
729.2  30.79904
729  29.69815
728.8  31.458771
728.6  31.12801
728.4  30.809561
728.2  32.956546
728  32.970398
727.8  29.778544
727.6  32.319287
727.4  32.313623
727.2  31.370348
727  33.566157
726.8  31.96913
726.6  29.960618
726.4  35.11433
726.2  35.170925
726  32.703017
725.8  31.277495
725.6  30.615603
725.4  32.321291
725.2  35.592461
725  33.432943
724.8  32.488119
724.6  31.695778
724.4  29.981958
724.2  31.837994
724  32.49229
723.8  34.210981
723.6  35.261769
723.4  33.816618
723.2  35.077904
723  32.809879
722.8  34.045409
722.6  33.764474
722.4  31.316213
722.2  33.859985
722  36.27126
721.8  34.059685
721.6  32.83324
721.4  36.196219
721.2  33.972162
721  32.123821
720.8  32.173026
720.6  34.035539
720.4  33.693929
720.2  38.789053
720  36.341461
719.8  35.031022
719.6  34.209008
719.4  35.709647
719.2  37.84207
719  33.338819
718.8  34.140124
718.6  35.837062
718.4  34.626789
718.2  33.26894
718  33.858036
717.8  32.63035
717.6  31.913112
717.4  33.35432
717.2  34.239751
717  35.109084
716.8  34.782353
716.6  30.958441
716.4  33.156384
716.2  31.03161
716  32.487349
715.8  32.347241
715.6  32.17692
715.4  32.263262
715.2  32.042913
715  31.548253
714.8  32.113018
714.6  33.966438
714.4  33.539155
714.2  32.768567
714  31.766323
713.8  32.766286
713.6  31.962543
713.4  31.989511
713.2  34.007611
713  34.513846
712.8  32.905711
712.6  31.366299
712.4  31.167269
712.2  32.586155
712  30.465505
711.8  31.431607
711.6  31.528275
711.4  31.775247
711.2  31.957255
711  30.30804
710.8  31.514753
710.6  32.752615
710.4  30.038425
710.2  31.642132
710  32.250243
709.8  31.555426
709.6  32.298626
709.4  31.059393
709.2  29.882907
709  29.846966
708.8  30.549383
708.6  28.454109
708.4  29.414019
708.2  28.023638
708  28.41662
707.8  27.393366
707.6  25.61034
707.4  24.624514
707.2  25.774246
707  26.842182
706.8  26.072227
706.6  26.212327
706.4  26.57401
706.2  28.066799
706  28.322872
705.8  26.033511
705.6  25.041538
705.4  26.963321
705.2  26.93675
705  27.165795
704.8  25.398538
704.6  25.825441
704.4  23.363159
704.2  24.327546
704  22.849818
703.8  23.789833
703.6  26.346593
703.4  27.37485
703.2  26.799375
703  24.999379
702.8  25.45702
702.6  26.267472
702.4  26.575569
702.2  30.61046
702  27.043709
701.8  27.062923
701.6  25.054616
701.4  25.179757
701.2  27.243294
701  26.904193
700.8  25.438133
700.6  24.138313
700.4  23.636624
700.2  24.887571
700  25.701113
699.8  25.039157
699.6  25.006175
699.4  23.993816
699.2  23.362821
699  24.520123
698.8  24.355811
698.6  22.25164
698.4  23.819563
698.2  22.941184
698  23.39331
697.8  23.394451
697.6  24.117754
697.4  23.951919
697.2  26.586294
697  25.445262
696.8  24.448904
696.6  24.293813
696.4  24.885365
696.2  23.759082
696  23.919915
695.8  25.796628
695.6  25.998025
695.4  27.438596
695.2  25.146413
695  25.880213
694.8  23.752654
694.6  24.675599
694.4  24.196225
694.2  22.489499
694  23.751159
693.8  25.041151
693.6  24.980269
693.4  23.933431
693.2  24.060784
693  23.97394
692.8  25.183912
692.6  26.389853
692.4  26.673132
692.2  24.847319
692  25.015347
691.8  24.533981
691.6  23.849154
691.4  26.106561
691.2  25.821031
691  25.881718
690.8  22.48922
690.6  24.902674
690.4  26.091427
690.2  25.707509
690  24.863309
689.8  26.754434
689.6  26.822705
689.4  24.497736
689.2  24.471145
689  26.988271
688.8  28.690627
688.6  29.518466
688.4  28.0789
688.2  27.15656
688  24.816477
687.8  27.977077
687.6  27.537713
687.4  24.497265
687.2  24.254805
687  23.415834
686.8  23.352064
686.6  23.066296
686.4  24.677679
686.2  23.319575
686  23.335533
685.8  25.035799
685.6  22.437575
685.4  20.512657
685.2  23.585549
685  24.044973
684.8  23.33622
684.6  22.925015
684.4  25.041575
684.2  25.557962
684  23.479352
683.8  21.048109
683.6  22.729248
683.4  24.16945
683.2  27.109409
683  24.334124
682.8  23.892969
682.6  22.95931
682.4  22.231385
682.2  25.125258
682  24.268997
681.8  24.027248
681.6  24.988758
681.4  21.088143
681.2  22.297709
681  23.537476
680.8  23.866742
680.6  23.701292
680.4  25.285913
680.2  26.489843
680  23.60359
679.8  25.591442
679.6  24.873765
679.4  27.211631
679.2  25.521582
679  24.280818
678.8  24.833599
678.6  22.891167
678.4  24.348754
678.2  22.948604
678  22.650813
677.8  23.351287
677.6  26.11384
677.4  25.936207
677.2  24.495114
677  25.859475
676.8  24.394166
676.6  23.057853
676.4  25.305453
676.2  27.018537
676  25.704538
675.8  25.800007
675.6  23.705033
675.4  22.863266
675.2  25.845012
675  25.368223
674.8  23.667494
674.6  24.342497
674.4  26.267533
674.2  26.825024
674  25.289217
673.8  24.690778
673.6  25.382976
673.4  24.694248
673.2  26.717369
673  27.149019
672.8  26.04555
672.6  26.293284
672.4  25.202781
672.2  24.022457
672  24.749774
671.8  23.90064
671.6  23.024599
671.4  26.031259
671.2  25.413932
671  25.754108
670.8  25.951973
670.6  25.608216
670.4  27.560898
670.2  26.648634
670  26.734873
669.8  27.191552
669.6  26.880357
669.4  27.829821
669.2  27.639447
669  27.705988
668.8  24.582442
668.6  26.118832
668.4  28.296736
668.2  25.622961
668  26.085644
667.8  24.151029
667.6  25.96996
667.4  25.451856
667.2  26.441139
667  24.028627
666.8  24.565674
666.6  25.876191
666.4  26.790685
666.2  26.835524
666  24.289626
665.8  24.889224
665.6  25.610942
665.4  25.691841
665.2  26.943459
665  27.125591
664.8  29.233808
664.6  25.832347
664.4  27.60624
664.2  28.297296
664  26.601958
663.8  28.055347
663.6  26.6574
663.4  25.08462
663.2  25.407853
663  24.833233
662.8  26.019873
662.6  26.362045
662.4  25.143417
662.2  25.449379
662  24.44754
661.8  26.07813
661.6  27.442195
661.4  28.671482
661.2  27.538995
661  28.364486
660.8  27.061213
660.6  25.86413
660.4  26.055733
660.2  28.843445
660  28.401328
659.8  26.427198
659.6  27.368691
659.4  25.916428
659.2  26.951165
659  27.104646
658.8  27.6054
658.6  25.686216
658.4  26.065768
658.2  30.023766
658  28.768379
657.8  31.569451
657.6  31.541802
657.4  29.623467
657.2  28.596954
657  29.040544
656.8  29.868208
656.6  28.786782
656.4  29.502134
656.2  30.457235
656  28.985579
655.8  29.026907
655.6  29.058545
655.4  30.022221
655.2  30.000822
655  28.820586
654.8  28.826167
654.6  28.738605
654.4  30.343837
654.2  28.910715
654  28.023263
653.8  33.399022
653.6  30.588954
653.4  30.100567
653.2  28.398693
653  29.569028
652.8  30.311848
652.6  29.296546
652.4  29.327628
652.2  27.070595
652  27.844553
651.8  29.471871
651.6  31.070199
651.4  28.860283
651.2  26.694004
651  30.922133
650.8  30.435481
650.6  28.451461
650.4  31.452616
650.2  31.348358
650  29.799516
649.8  28.140881
649.6  30.096551
649.4  33.050619
649.2  29.937038
649  31.152026
648.8  32.018275
648.6  36.514196
648.4  33.566272
648.2  36.918249
648  39.966555
647.8  38.676669
647.6  38.136114
647.4  36.83819
647.2  37.511523
647  34.510171
646.8  34.041945
646.6  33.565383
646.4  32.845101
646.2  33.913292
646  30.024653
645.8  29.128859
645.6  30.239467
645.4  28.467162
645.2  29.391404
645  27.049854
644.8  27.879881
644.6  29.705169
644.4  28.979249
644.2  26.975105
644  28.69957
643.8  26.464765
643.6  28.031658
643.4  25.389766
643.2  26.465651
643  25.726357
642.8  25.060849
642.6  24.998796
642.4  28.132701
642.2  25.470653
642  26.402156
641.8  26.342908
641.6  26.543558
641.4  26.722819
641.2  29.210324
641  28.263618
640.8  27.520809
640.6  30.042732
640.4  29.757801
640.2  32.962224
640  31.725165
639.8  29.723278
639.6  29.185376
639.4  28.60887
639.2  29.519949
639  28.992538
638.8  25.689228
638.6  24.34503
638.4  28.584852
638.2  25.61108
638  23.869913
637.8  22.313106
637.6  21.91807
637.4  23.615052
637.2  23.135879
637  23.15932
636.8  23.291978
636.6  21.936613
636.4  20.560005
636.2  20.185794
636  20.636504
635.8  22.655533
635.6  21.524222
635.4  23.986354
635.2  21.615145
635  18.598822
634.8  20.210063
634.6  18.863209
634.4  18.676169
634.2  20.223147
634  19.869285
633.8  18.863416
633.6  20.750601
633.4  18.717312
633.2  18.430024
633  17.223049
632.8  20.616206
632.6  20.9747
632.4  20.215896
632.2  18.995829
632  19.755467
631.8  18.125234
631.6  19.151945
631.4  19.893796
631.2  19.12372
631  18.124954
630.8  19.458173
630.6  19.347091
630.4  19.511979
630.2  19.954511
630  17.807227
629.8  19.755174
629.6  19.66427
629.4  18.854141
629.2  19.532893
629  20.707471
628.8  20.602664
628.6  19.936995
628.4  21.771908
628.2  19.198047
628  19.556559
627.8  19.009871
627.6  18.15915
627.4  18.801481
627.2  18.871007
627  18.06576
626.8  18.59972
626.6  18.73062
626.4  19.942446
626.2  16.905519
626  16.759478
625.8  17.06558
625.6  18.632601
625.4  17.441229
625.2  17.861003
625  18.66067
624.8  16.460078
624.6  15.368545
624.4  19.122134
624.2  17.690196
624  17.084715
623.8  16.36225
623.6  16.213019
623.4  16.527429
623.2  17.161262
623  15.410725
622.8  14.672513
622.6  16.690634
622.4  18.156061
622.2  17.336114
622  16.35078
621.8  14.178896
621.6  15.841398
621.4  18.065974
621.2  17.544804
621  16.700784
620.8  15.998212
620.6  17.896294
620.4  17.429883
620.2  16.622133
620  15.019364
619.8  16.236084
619.6  15.620388
619.4  16.504295
619.2  17.390039
619  16.281485
618.8  15.860083
618.6  17.328832
618.4  16.175783
618.2  16.727957
618  15.606545
617.8  14.819791
617.6  15.769636
617.4  15.928461
617.2  15.951723
617  16.1072
616.8  15.170056
616.6  16.475508
616.4  16.947491
616.2  15.415193
616  14.5204
615.8  14.784845
615.6  15.181801
615.4  16.333537
615.2  19.485702
615  16.364441
614.8  15.193688
614.6  13.974542
614.4  17.37352
614.2  19.298194
614  16.793311
613.8  16.788208
613.6  15.225691
613.4  16.896129
613.2  16.865808
613  15.950872
612.8  16.114164
612.6  14.573046
612.4  16.683884
612.2  16.479034
612  16.630646
611.8  16.402364
611.6  16.628814
611.4  15.513167
611.2  16.91956
611  16.106387
610.8  16.521711
610.6  16.974842
610.4  16.416354
610.2  15.970007
610  14.529181
609.8  14.064307
609.6  14.70014
609.4  18.658028
609.2  16.315556
609  15.9875
608.8  16.365663
608.6  15.687583
608.4  16.889594
608.2  17.850338
608  18.514267
607.8  17.343345
607.6  17.239664
607.4  17.05173
607.2  18.359788
607  17.248441
606.8  16.136787
606.6  16.550133
606.4  16.676834
606.2  15.92279
606  15.327037
605.8  15.683723
605.6  18.3656
605.4  19.205678
605.2  17.946026
605  16.238857
604.8  17.251426
604.6  16.603047
604.4  17.460497
604.2  16.063421
604  18.570251
603.8  18.100366
603.6  16.747085
603.4  16.87072
603.2  19.871513
603  17.942182
602.8  16.913717
602.6  17.772174
602.4  18.20965
602.2  18.801957
602  17.573857
601.8  17.290395
601.6  17.70805
601.4  18.044217
601.2  18.607665
601  17.682086
600.8  17.999838
600.6  19.905479
600.4  19.88019
600.2  19.546919
600  18.783227
599.8  18.446661
599.6  18.906949
599.4  17.19433
599.2  18.730167
599  19.840671
598.8  19.087599
598.6  18.931477
598.4  18.566942
598.2  18.385147
598  17.148307
597.8  17.598228
597.6  17.617121
597.4  17.185246
597.2  19.298805
597  19.509653
596.8  17.843974
596.6  20.610557
596.4  19.876556
596.2  20.21526
596  20.251389
595.8  17.962326
595.6  18.467734
595.4  18.650106
595.2  18.847677
595  18.140281
594.8  17.879549
594.6  20.016444
594.4  21.133972
594.2  19.483688
594  18.421064
593.8  19.637806
593.6  19.653654
593.4  21.487776
593.2  19.201315
593  18.488204
592.8  19.591994
592.6  19.252182
592.4  19.840558
592.2  20.188753
592  22.301945
591.8  19.551171
591.6  18.492258
591.4  18.224888
591.2  18.752581
591  18.415758
590.8  17.544476
590.6  19.346673
590.4  22.979558
590.2  19.728214
590  20.95044
589.8  20.432981
589.6  17.708987
589.4  20.153603
589.2  20.547879
589  18.400737
588.8  19.377728
588.6  18.642149
588.4  19.769501
588.2  19.39183
588  17.926426
587.8  19.07614
587.6  19.308647
587.4  19.797428
587.2  20.338442
587  19.20492
586.8  18.460168
586.6  18.986527
586.4  19.061451
586.2  18.325515
586  20.795295
585.8  18.453211
585.6  19.283974
585.4  19.834287
585.2  19.142582
585  18.84716
584.8  16.699938
584.6  20.700093
584.4  19.041315
584.2  17.720856
584  21.308675
583.8  22.813704
583.6  20.597564
583.4  18.504251
583.2  21.041291
583  19.468631
582.8  19.501489
582.6  19.668142
582.4  18.511838
582.2  19.107699
582  19.595286
581.8  17.359861
581.6  18.409054
581.4  19.105398
581.2  20.331823
581  19.469673
580.8  19.767646
580.6  19.054803
580.4  18.264129
580.2  20.257876
580  18.475979
579.8  19.622289
579.6  22.124789
579.4  20.617068
579.2  21.079615
579  22.326469
578.8  23.140013
578.6  20.391331
578.4  20.720832
578.2  22.725439
578  22.154616
577.8  20.624091
577.6  20.304353
577.4  20.398773
577.2  21.391204
577  21.695779
576.8  22.748534
576.6  22.941924
576.4  23.220099
576.2  22.731436
576  22.47581
575.8  21.435218
575.6  23.227343
575.4  24.306744
575.2  21.903252
575  23.096211
574.8  22.618989
574.6  25.019317
574.4  23.583409
574.2  24.018712
574  24.033851
573.8  25.483001
573.6  26.310446
573.4  25.697839
573.2  28.553333
573  27.254306
572.8  28.041439
572.6  29.052837
572.4  31.602257
572.2  29.535198
572  31.411328
571.8  28.690622
571.6  30.520576
571.4  28.377579
571.2  28.313529
571  29.721235
570.8  32.322834
570.6  30.073281
570.4  33.411609
570.2  31.846735
570  33.52357
569.8  31.205833
569.6  31.556416
569.4  33.303774
569.2  34.33375
569  38.192706
568.8  42.581278
568.6  53.86505
568.4  63.845329
568.2  69.682709
568  72.710757
567.8  61.617907
567.6  48.109265
567.4  37.865326
567.2  34.05792
567  28.285931
566.8  28.18592
566.6  26.03367
566.4  22.918607
566.2  21.082616
566  21.917448
565.8  24.189671
565.6  23.977736
565.4  25.532435
565.2  22.65707
565  19.702045
564.8  19.564531
564.6  16.985087
564.4  15.273953
564.2  14.32264
564  13.333264
563.8  13.260731
563.6  11.357613
563.4  11.035261
563.2  11.747257
563  11.012737
562.8  10.425272
562.6  10.563699
562.4  10.311314
562.2  10.916728
562  11.474527
561.8  10.561021
561.6  9.1854685
561.4  11.13625
561.2  10.575386
561  10.141683
560.8  9.7893925
560.6  10.938032
560.4  10.87147
560.2  9.4977644
560  9.9985387
559.8  8.8346377
559.6  9.5409048
559.4  10.803875
559.2  11.33084
559  11.586499
558.8  10.468925
558.6  9.9211492
558.4  10.069955
558.2  10.773144
558  8.7528798
557.8  9.1411688
557.6  8.845798
557.4  8.9948034
557.2  7.947387
557  8.1196738
556.8  8.5629661
556.6  7.9399953
556.4  8.0828276
556.2  8.4958577
556  8.3391167
555.8  8.3297551
555.6  7.3631825
555.4  6.905656
555.2  7.4070343
555  7.4674452
554.8  8.3468934
554.6  8.0156441
554.4  7.6507881
554.2  9.1372852
554  7.8363892
553.8  8.9732067
553.6  10.29442
553.4  11.34451
553.2  8.4625611
553  7.6898045
552.8  8.2085364
552.6  9.2816341
552.4  9.3381535
552.2  9.8739131
552  10.714181
551.8  10.98613
551.6  9.040746
551.4  9.6938801
551.2  9.1048754
551  8.6305807
550.8  7.6264087
550.6  7.2810502
550.4  7.8700826
550.2  7.5444956
550  9.1942504
549.8  8.4618229
549.6  9.3263207
549.4  9.5334154
549.2  8.9629002
549  10.378356
548.8  11.657432
548.6  11.132917
548.4  11.478247
548.2  10.571699
548  9.706398
547.8  10.151392
547.6  9.2320066
547.4  9.3741029
547.2  9.1021824
547  6.7898225
546.8  7.2612996
546.6  6.9931409
546.4  6.5577978
546.2  6.7548201
546  6.0708353
545.8  6.6219431
545.6  4.7302119
545.4  5.0642052
545.2  5.394178
545  5.5313974
544.8  5.5630489
544.6  5.492181
544.4  5.2373962
544.2  4.3977679
544  4.1299493
543.8  4.369966
543.6  4.3573241
543.4  4.0770038
543.2  3.973035
543  3.915792
542.8  3.9166544
542.6  4.2137768
542.4  4.3873373
542.2  5.1240798
542  4.7397069
541.8  3.6822882
541.6  5.1106537
541.4  4.7288752
541.2  4.6045467
541  4.5945519
540.8  4.3500258
540.6  4.7593929
540.4  3.9500939
540.2  4.3866155
540  4.7537828
539.8  4.0216766
539.6  3.96174
539.4  4.4285664
539.2  3.5553421
539  3.3733495
538.8  3.9503334
538.6  4.0691988
538.4  3.9885965
538.2  3.8515977
538  3.1199065
537.8  4.139104
537.6  4.2430332
537.4  3.5293275
537.2  3.9992718
537  3.4712446
536.8  3.1454553
536.6  3.7996725
536.4  3.7818631
536.2  3.0949116
536  3.8881689
535.8  3.7851662
535.6  3.5189083
535.4  4.5216437
535.2  5.1450064
535  3.6533352
534.8  4.6486604
534.6  3.8071151
534.4  3.8102552
534.2  4.5388515
534  4.3944234
533.8  4.7595391
533.6  5.2623724
533.4  5.8864256
533.2  4.6883319
533  5.1995063
532.8  5.2473615
532.6  4.5216704
532.4  5.0749721
532.2  4.8681677
532  5.7846851
531.8  4.7687496
531.6  4.8113555
531.4  4.4605404
531.2  4.7465629
531  4.1241446
530.8  4.0332675
530.6  3.8901114
530.4  3.6343508
530.2  3.8688123
530  3.8915352
529.8  4.1479448
529.6  4.1406845
529.4  3.8126035
529.2  3.1563571
529  3.7904734
528.8  2.7345421
528.6  3.8985283
528.4  3.3421172
528.2  3.7557787
528  3.7440764
527.8  4.0779599
527.6  3.9306041
527.4  3.7736789
527.2  3.9694396
527  3.6787148
526.8  3.3318523
526.6  3.2923181
526.4  2.9273554
526.2  3.1086365
526  3.2159091
525.8  3.3374417
525.6  3.5889245
525.4  3.5592049
525.2  3.6302583
525  3.3693149
524.8  2.9372307
524.6  3.399705
524.4  3.8587692
524.2  3.9803418
524  3.237545
523.8  2.9505219
523.6  3.0707648
523.4  2.8298686
523.2  3.6612121
523  2.9326914
522.8  3.3216865
522.6  3.1846785
522.4  3.8612263
522.2  3.7728408
522  3.0422803
521.8  3.6667685
521.6  4.2199048
521.4  4.1012687
521.2  4.3934409
521  3.0268694
520.8  3.285071
520.6  3.0714143
520.4  2.6908788
520.2  3.0507797
520  3.7168663
519.8  3.6126845
519.6  2.9650017
519.4  2.9299834
519.2  3.1468188
519  2.6724642
518.8  2.7145711
518.6  2.7075449
518.4  3.6225135
518.2  2.9118054
518  3.503136
517.8  2.8257486
517.6  2.8568025
517.4  3.7659929
517.2  3.7474943
517  3.5245286
516.8  3.4698123
516.6  3.3801204
516.4  3.262194
516.2  3.3681554
516  3.0760191
515.8  2.2088455
515.6  3.6049007
515.4  2.9075193
515.2  3.2659735
515  3.5122077
514.8  3.4462919
514.6  3.0489495
514.4  3.5097639
514.2  3.3827374
514  3.2677794
513.8  3.6303745
513.6  3.6510009
513.4  3.9658122
513.2  3.7915406
513  3.4010064
512.8  3.1575966
512.6  3.206611
512.4  3.3422578
512.2  3.7786754
512  2.8237713
511.8  3.1046135
511.6  3.1523963
511.4  2.8428208
511.2  3.214088
511  3.6230677
510.8  3.9904677
510.6  3.1850613
510.4  3.2558278
510.2  3.2201478
510  3.053155
509.8  3.3499261
509.6  3.4107157
509.4  3.3328161
509.2  3.0027928
509  3.557224
508.8  3.4413153
508.6  3.5829534
508.4  3.1025555
508.2  3.162745
508  2.905808
507.8  2.758336
507.6  3.2276857
507.4  3.3273227
507.2  3.1225114
507  3.789493
506.8  3.5662928
506.6  3.2689601
506.4  3.7643698
506.2  3.6445432
506  3.256798
505.8  2.7449145
505.6  3.3900326
505.4  3.146394
505.2  2.9194488
505  4.3643017
504.8  3.5595917
504.6  2.8455312
504.4  3.8837031
504.2  3.586971
504  3.2525302
503.8  3.3806344
503.6  3.2519233
503.4  4.0306618
503.2  5.5071395
503  3.7451404
502.8  3.3731045
502.6  3.3703191
502.4  3.0083576
502.2  2.8704243
502  4.4841271
501.8  4.3865461
501.6  3.4932251
501.4  2.8027606
501.2  3.1709438
501  2.8854984
500.8  3.4533779
500.6  3.2822922
500.4  3.2976681
500.2  3.6499825
500  3.263413
499.8  4.7751067
499.6  4.1246147
499.4  4.257538
499.2  3.4040297
499  3.1505573
498.8  3.1158893
498.6  3.0791177
498.4  3.3627672
498.2  3.2524948
498  2.6308539
497.8  3.0405334
497.6  3.5533832
497.4  3.3766723
497.2  4.2521099
497  4.0796267
496.8  4.5229323
496.6  3.9284947
496.4  3.2786764
496.2  4.1233823
496  3.7266301
495.8  3.8710355
495.6  3.584939
495.4  2.9043321
495.2  3.1297861
495  2.9121506
494.8  3.3345359
494.6  3.8165384
494.4  3.5270757
494.2  3.5856989
494  3.4858939
493.8  4.0102648
493.6  3.5176168
493.4  3.888475
493.2  3.3120368
493  3.239937
492.8  3.3233015
492.6  3.5768213
492.4  3.8074698
492.2  3.6014158
492  2.8539811
491.8  3.388562
491.6  3.2138874
491.4  3.701138
491.2  3.7593841
491  3.8722518
490.8  3.320307
490.6  3.3290461
490.4  3.4642687
490.2  3.2015115
490  3.5529336
489.8  3.6342412
489.6  3.7141551
489.4  3.3193726
489.2  3.6146707
489  4.13403
488.8  3.2412128
488.6  3.7466808
488.4  3.9161793
488.2  3.4746889
488  3.8622621
487.8  4.1239219
487.6  4.0273252
487.4  3.5107823
487.2  3.1025066
487  2.8409112
486.8  3.0095276
486.6  3.6978097
486.4  4.8022054
486.2  4.3148129
486  3.9967522
485.8  3.2163561
485.6  3.9770128
485.4  4.0182847
485.2  3.5834892
485  3.2967127
484.8  3.3620551
484.6  3.5884645
484.4  4.0699133
484.2  4.2456219
484  3.535726
483.8  3.3643725
483.6  3.6865487
483.4  3.639135
483.2  4.0548087
483  4.155321
482.8  3.4734576
482.6  3.2608629
482.4  3.7474906
482.2  3.1256212
482  3.6226379
481.8  3.2372197
481.6  3.7184256
481.4  3.6366393
481.2  3.3480819
481  3.0920367
480.8  3.7372048
480.6  3.7128202
480.4  4.0657014
480.2  4.2390308
480  3.9477136
479.8  3.6981059
479.6  4.02645
479.4  3.1256783
479.2  2.8818151
479  3.0354661
478.8  3.4128837
478.6  4.3748422
478.4  3.906493
478.2  4.0398424
478  3.8398277
477.8  3.4950971
477.6  3.5665493
477.4  3.2814465
477.2  3.6431855
477  3.3278584
476.8  3.6175826
476.6  3.7841357
476.4  3.5107337
476.2  3.3300974
476  3.8628433
475.8  4.1971594
475.6  3.5483633
475.4  3.3456819
475.2  3.4085759
475  3.0345733
474.8  3.6992219
474.6  3.7059543
474.4  3.2244644
474.2  3.5869585
474  3.7038707
473.8  3.2750943
473.6  3.6003145
473.4  3.6644373
473.2  3.1715305
473  3.283748
472.8  3.3411538
472.6  3.1464352
472.4  2.840657
472.2  2.9749641
472  3.5741946
471.8  4.2501279
471.6  3.8293389
471.4  3.1472953
471.2  4.121399
471  2.9738689
470.8  3.0199136
470.6  3.0884991
470.4  4.2088934
470.2  3.7078255
470  3.9556605
469.8  3.5279514
469.6  3.4498752
469.4  2.7256568
469.2  3.0297961
469  3.1757764
468.8  3.4570013
468.6  3.59929
468.4  4.1494244
468.2  4.0299973
468  3.6197815
467.8  3.4819482
467.6  3.3381461
467.4  3.4708497
467.2  3.4861209
467  3.5500138
466.8  3.552806
466.6  3.2234087
466.4  3.5816862
466.2  3.494744
466  3.4021639
465.8  3.8934394
465.6  4.5779488
465.4  3.8146564
465.2  3.7343403
465  3.784178
464.8  3.5561371
464.6  3.467948
464.4  3.7249554
464.2  3.7106027
464  3.5753936
463.8  3.9922687
463.6  3.457181
463.4  3.8638212
463.2  3.9974688
463  3.7261066
462.8  3.2617033
462.6  3.2400904
462.4  3.8420718
462.2  3.2667709
462  3.0416402
461.8  3.0854262
461.6  3.8177239
461.4  3.1198319
461.2  3.788699
461  3.0105198
460.8  3.8224229
460.6  4.025433
460.4  3.9515318
460.2  3.4586213
460  3.1977983
459.8  3.4277682
459.6  4.1873633
459.4  3.8857861
459.2  3.3729177
459  4.4275251
458.8  4.0712452
458.6  3.6140956
458.4  3.6023104
458.2  3.5472448
458  3.1231388
457.8  3.4539575
457.6  3.6412526
457.4  3.7014303
457.2  3.6127014
457  3.8680476
456.8  3.81309
456.6  4.0165472
456.4  4.0691804
456.2  4.3715644
456  4.5758454
455.8  4.487112
455.6  3.9636562
455.4  4.8757251
455.2  4.2990374
455  3.6606468
454.8  4.1110109
454.6  3.8972228
454.4  4.4565294
454.2  4.0340312
454  3.9047569
453.8  3.3873449
453.6  3.5709923
453.4  3.3903956
453.2  3.7709812
453  4.2081484
452.8  3.3263996
452.6  3.880021
452.4  4.3510741
452.2  3.7969988
452  3.505459
451.8  4.2696298
451.6  3.9774219
451.4  3.2419994
451.2  3.6468473
451  3.3971785
450.8  3.3719451
450.6  3.0305313
450.4  3.6116332
450.2  3.5286644
450  3.5622949
449.8  3.3723544
449.6  3.7129691
449.4  3.9700695
449.2  3.8106661
449  3.0576682
448.8  3.7860599
448.6  3.7243672
448.4  4.3566001
448.2  3.6382547
448  3.6501784
447.8  3.6345697
447.6  3.7075298
447.4  3.5892898
447.2  3.942403
447  3.872148
446.8  3.858592
446.6  3.5619724
446.4  3.6995631
446.2  3.8479664
446  4.5258852
445.8  3.8054238
445.6  3.7895056
445.4  3.8868245
445.2  3.2308326
445  3.4321956
444.8  3.5890485
444.6  3.4971198
444.4  4.6249075
444.2  3.3953221
444  3.657397
443.8  3.3060579
443.6  3.9019233
443.4  3.4064529
443.2  3.5772702
443  3.7561232
442.8  3.6234529
442.6  3.2487291
442.4  4.717216
442.2  4.1177309
442  4.1710095
441.8  3.0488086
441.6  3.4810062
441.4  3.2590848
441.2  3.1815439
441  2.93796
440.8  3.1764684
440.6  3.9792677
440.4  3.715334
440.2  3.7443168
440  3.9039398
439.8  3.585495
439.6  3.618158
439.4  3.816849
439.2  3.4854447
439  4.0472777
438.8  4.1434881
438.6  4.270913
438.4  4.3333862
438.2  3.6676259
438  4.08497
437.8  4.2652518
437.6  3.9876937
437.4  3.9783067
437.2  3.5725454
437  3.4424787
436.8  3.2023438
436.6  3.7192754
436.4  4.2857898
436.2  5.1439555
436  4.0089217
435.8  3.8466701
435.6  3.9014141
435.4  4.3337451
435.2  4.383702
435  4.3761424
434.8  4.3545415
434.6  3.652288
434.4  3.7176712
434.2  4.4496133
434  4.1411074
433.8  4.0744205
433.6  3.9610366
433.4  3.3625805
433.2  4.1147307
433  3.1945961
432.8  4.1391175
432.6  4.4484424
432.4  4.376423
432.2  3.9696145
432  3.3928814
431.8  3.5053403
431.6  3.0548713
431.4  3.5896796
431.2  3.9665341
431  4.394747
430.8  3.4153541
430.6  3.4027604
430.4  4.2256109
430.2  3.1390384
430  3.4016229
429.8  3.3486082
429.6  3.4454425
429.4  3.2898325
429.2  3.9185355
429  3.7046867
428.8  3.4268582
428.6  3.6824707
428.4  4.262256
428.2  3.6176678
428  4.1929313
427.8  3.0491024
427.6  4.0198278
427.4  3.9214921
427.2  4.3761895
427  4.2644734
426.8  4.0653572
426.6  3.758337
426.4  3.8360392
426.2  3.6194314
426  3.1521099
425.8  3.769672
425.6  4.6028717
425.4  3.8314163
425.2  4.0293173
425  5.0021847
424.8  3.7910398
424.6  4.5952994
424.4  4.716534
424.2  3.5501112
424  2.8962325
423.8  3.8213656
423.6  4.8191766
423.4  3.7866709
423.2  4.2759203
423  3.6405207
422.8  3.5371575
422.6  4.1723268
422.4  4.4244445
422.2  3.7740042
422  3.9584823
421.8  3.6696168
421.6  3.7686531
421.4  4.142186
421.2  3.4650452
421  3.8234564
420.8  4.6632871
420.6  4.0794289
420.4  4.3336525
420.2  4.8185985
420  3.6138855
419.8  3.7727994
419.6  4.9296948
419.4  4.0201719
419.2  3.6910661
419  4.7342068
418.8  4.3670646
418.6  4.0532707
418.4  4.2406949
418.2  4.0030822
418  3.8960704
417.8  3.5808369
417.6  3.7072438
417.4  3.6898741
417.2  3.8398286
417  3.9527107
416.8  4.6205087
416.6  5.389498
416.4  4.0307408
416.2  4.3190928
416  3.7990376
415.8  3.5200722
415.6  3.2787481
415.4  3.1367702
415.2  3.2795902
415  4.5532806
414.8  4.8240723
414.6  3.7447451
414.4  3.9823891
414.2  4.0856361
414  3.8975872
413.8  3.8432177
413.6  4.4180206
413.4  4.4114933
413.2  4.4775961
413  3.0176977
412.8  3.4430187
412.6  3.6553007
412.4  4.6450631
412.2  4.7255668
412  5.0391789
411.8  4.9570006
411.6  4.4075589
411.4  4.120398
411.2  4.3724614
411  4.190308
410.8  3.4603543
410.6  3.1074369
410.4  4.0699598
410.2  4.2048848
410  3.6686364
409.8  4.1706549
409.6  3.9821332
409.4  3.5931594
409.2  4.3712222
409  3.8671822
408.8  4.169429
408.6  3.7765188
408.4  3.5137236
408.2  4.0993243
408  3.7668566
407.8  4.2450574
407.6  5.6421844
407.4  3.3363387
407.2  3.1449626
407  3.5657905
406.8  3.7235495
406.6  4.4607683
406.4  4.3569801
406.2  4.637235
406  4.4733752
405.8  4.4825835
405.6  4.384473
405.4  4.2943716
405.2  4.1883666
405  4.8583145
404.8  4.8483762
404.6  3.9166535
404.4  4.4443272
404.2  3.7096721
404  4.2298794
403.8  4.4892477
403.6  4.117797
403.4  4.7365623
403.2  4.1587391
403  3.6336347
402.8  3.51872
402.6  3.7243383
402.4  3.6908159
402.2  4.1612345
402  3.4734137
401.8  4.8996155
401.6  4.5483278
401.4  4.3540622
401.2  3.9721128
401  4.4861744
400.8  5.9589527
400.6  4.6844583
400.4  5.8720745
400.2  5.8734688
400  5.0871671
399.8  4.0757351
399.6  4.795386
399.4  5.2293552
399.2  4.3117676
399  4.4012871
398.8  4.3811828
398.6  4.2651768
398.4  4.0271612
398.2  3.6188301
398  3.7909655
397.8  3.4328086
397.6  2.9531637
397.4  3.5061926
397.2  5.7163448
397  4.6550738
396.8  3.9189665
396.6  3.9966917
396.4  4.1509216
396.2  4.3444168
396  3.7961853
395.8  4.5308365
395.6  4.3070253
395.4  4.0622946
395.2  3.8070035
395  4.6934199
394.8  5.2408069
394.6  4.3286889
394.4  3.7765842
394.2  3.7244878
394  4.5711096
393.8  4.4048967
393.6  3.9929407
393.4  4.1716073
393.2  4.0307862
393  3.5189565
392.8  3.5302643
392.6  3.3100123
392.4  3.5926053
392.2  3.4346096
392  3.7864802
391.8  3.4848906
391.6  4.1028613
391.4  3.4069428
391.2  4.0260678
391  4.2699624
390.8  4.1569021
390.6  3.8181556
390.4  3.7013558
390.2  3.915739
390  4.4842441
389.8  4.7696695
389.6  3.8770693
389.4  3.6894433
389.2  3.7739314
389  3.2366233
388.8  3.226968
388.6  3.7551416
388.4  4.459492
388.2  3.813653
388  3.090592
387.8  4.6967732
387.6  4.7363401
387.4  3.5353406
387.2  4.1061906
387  4.236818
386.8  4.0547016
386.6  3.7420255
386.4  2.9880125
386.2  3.5781439
386  3.4396682
385.8  3.6922981
385.6  3.2727925
385.4  3.7736902
385.2  4.4248171
385  3.9716474
384.8  4.0232011
384.6  3.2362525
384.4  3.5706592
384.2  4.0531739
384  4.1505754
383.8  3.4571555
383.6  3.8994107
383.4  4.2255779
383.2  4.2292767
383  4.048169
382.8  3.935522
382.6  3.9898814
382.4  3.9551391
382.2  3.9690847
382  3.9043062
381.8  3.9277843
381.6  4.0230288
381.4  4.3575707
381.2  4.7374579
381  4.2786386
380.8  3.5949288
380.6  3.8827654
380.4  4.0510734
380.2  3.9371145
380  3.8466603
379.8  3.4003268
379.6  4.7134863
379.4  4.0646828
379.2  4.4409936
379  4.4280945
378.8  4.0402104
378.6  4.6981926
378.4  4.6063384
378.2  4.0532949
378  3.5372641
377.8  3.7754593
377.6  3.5738066
377.4  3.7641217
377.2  3.510869
377  3.5980803
376.8  3.5404331
376.6  4.3556444
376.4  3.9185658
376.2  3.8508033
376  3.9275232
375.8  3.6487928
375.6  3.5736164
375.4  3.6122588
375.2  3.3181267
375  3.9276896
374.8  4.5548119
374.6  3.824552
374.4  3.977648
374.2  3.9272269
374  3.7911188
373.8  4.0513526
373.6  4.0909106
373.4  3.7626839
373.2  4.0873026
373  4.0387175
372.8  4.2703295
372.6  4.3192589
372.4  4.4221941
372.2  3.7037558
372  4.3210533
371.8  4.0237402
371.6  4.3070031
371.4  4.3319705
371.2  4.0002975
371  3.6976616
370.8  3.1140885
370.6  3.4801658
370.4  3.5897464
370.2  4.2771245
370  4.0102078
369.8  4.2505459
369.6  4.2368345
369.4  4.4126607
369.2  4.5845357
369  4.1008141
368.8  3.2357404
368.6  3.6747443
368.4  3.9800826
368.2  4.1871806
368  3.6370643
367.8  4.1171432
367.6  3.9692773
367.4  4.313486
367.2  5.0052777
367  4.1679604
366.8  3.6107551
366.6  4.6690232
366.4  4.9527787
366.2  3.6007515
366  3.9633087
365.8  4.0108475
365.6  3.8409868
365.4  4.3269322
365.2  4.2536157
365  3.624901
364.8  4.3347809
364.6  4.4325008
364.4  3.4287882
364.2  3.28433
364  3.4520547
363.8  3.8394734
363.6  4.6181776
363.4  3.9736009
363.2  4.2172416
363  3.5730805
362.8  4.1146078
362.6  4.4584095
362.4  4.3240992
362.2  4.3053844
362  4.0997684
361.8  3.4749252
361.6  3.4383589
361.4  3.8129028
361.2  4.1600184
361  4.8444345
360.8  4.4480093
360.6  4.4566872
360.4  3.4150699
360.2  3.2561445
360  4.1171448
359.8  4.3501038
359.6  4.53155
359.4  4.1451463
359.2  3.7793476
359  3.3063991
358.8  3.5506506
358.6  3.7467732
358.4  4.3268281
358.2  4.3687965
358  4.0129428
357.8  4.0660511
357.6  4.5670329
357.4  4.2215049
357.2  4.0019779
357  3.9983857
356.8  3.9420385
356.6  4.0404289
356.4  3.6506045
356.2  4.3563022
356  5.0061006
355.8  4.710361
355.6  4.2729821
355.4  4.2358673
355.2  4.1308036
355  4.3067492
354.8  3.9567138
354.6  3.7874028
354.4  4.2769283
354.2  4.8412404
354  4.6429584
353.8  4.1982917
353.6  4.5954222
353.4  3.6875181
353.2  4.0756493
353  4.4574184
352.8  5.1984812
352.6  3.6511029
352.4  3.4487402
352.2  4.0142117
352  4.5967648
351.8  3.2090937
351.6  4.344855
351.4  4.3499474
351.2  4.0692537
351  4.4844017
350.8  5.1128897
350.6  3.7263551
350.4  3.9006537
350.2  3.5761138
350  3.7750191
349.8  3.6802778
349.6  3.6177004
349.4  4.2234711
349.2  3.6938085
349  4.3746847
348.8  4.311546
348.6  4.9472245
348.4  4.7307318
348.2  4.4469925
348  4.8012286
347.8  4.091094
347.6  3.7581834
347.4  4.1518807
347.2  4.0367661
347  4.0488864
346.8  4.5451226
346.6  4.2832404
346.4  4.8284008
346.2  4.1665277
346  4.1414224
345.8  4.8458483
345.6  4.1200385
345.4  4.8134904
345.2  4.3805595
345  4.3410864
344.8  4.4156675
344.6  5.3942888
344.4  3.7183858
344.2  3.6508
344  3.9487298
343.8  4.8063439
343.6  4.0048216
343.4  3.8288651
343.2  3.8106345
343  4.1894855
342.8  4.8831463
342.6  4.1716883
342.4  3.8158834
342.2  5.2101179
342  4.2487883
341.8  3.557278
341.6  3.814049
341.4  3.8247861
341.2  4.0372593
341  4.071066
340.8  4.0067928
340.6  4.0623838
340.4  4.1248859
340.2  4.1518553
340  4.2522611
339.8  3.8844154
339.6  3.9392315
339.4  4.7923366
339.2  4.7828503
339  4.6140177
338.8  4.3363687
338.6  3.992621
338.4  3.9554533
338.2  4.6310567
338  4.7581772
337.8  4.1093049
337.6  4.6366214
337.4  3.7183461
337.2  4.5966595
337  4.3179336
336.8  4.3285718
336.6  5.0791111
336.4  4.6913753
336.2  4.9229638
336  4.6936103
335.8  4.584461
335.6  4.224874
335.4  4.2424737
335.2  4.0052807
335  3.985628
334.8  4.369886
334.6  5.5159589
334.4  4.9179716
334.2  4.6957263
334  5.0347586
333.8  5.4317641
333.6  4.1901792
333.4  4.7295446
333.2  4.0567343
333  4.3670347
332.8  4.2655058
332.6  4.2946162
332.4  4.9286785
332.2  4.1541085
332  3.2704585
331.8  3.7436055
331.6  4.3999899
331.4  4.9952832
331.2  4.679865
331  4.2180831
330.8  4.9009671
330.6  4.6732485
330.4  4.6556448
330.2  3.6885534
330  4.0516889
329.8  4.7611291
329.6  5.0727365
329.4  4.0853558
329.2  3.9939619
329  4.1354264
328.8  5.1819707
328.6  4.8080794
328.4  4.0009406
328.2  4.2103575
328  4.8314813
327.8  4.9683371
327.6  4.843892
327.4  5.7947887
327.2  4.5218604
327  4.0488299
326.8  5.2052571
326.6  4.5653395
326.4  4.4802515
326.2  4.3306419
326  4.3597875
325.8  4.2036263
325.6  4.2322375
325.4  4.8529991
325.2  4.3594448
325  4.8679056
324.8  4.2445709
324.6  5.1141247
324.4  5.0602904
324.2  4.8284679
324  4.6678681
323.8  3.8475648
323.6  3.5556944
323.4  4.379296
323.2  4.7133587
323  4.3949208
322.8  4.5657638
322.6  3.822053
322.4  4.8812163
322.2  5.0036044
322  3.9919717
321.8  5.1502906
321.6  4.6277152
321.4  4.5251838
321.2  5.5668087
321  4.304864
320.8  4.4682216
320.6  4.607686
320.4  4.8116281
320.2  4.886206
320  4.6793964
319.8  4.7284822
319.6  4.8736047
319.4  5.170746
319.2  5.1294985
319  4.2548269
318.8  3.9000995
318.6  4.5917058
318.4  4.9849377
318.2  5.2344889
318  4.8514268
317.8  4.6435022
317.6  4.6279733
317.4  4.2141318
317.2  4.6163985
317  5.4565377
316.8  6.1232139
316.6  4.733769
316.4  5.0280967
316.2  4.0754964
316  4.4898539
315.8  4.7310887
315.6  4.7039021
315.4  4.5477053
315.2  4.7610421
315  4.4182742
314.8  3.7437853
314.6  3.5726024
314.4  4.8904013
314.2  5.2625013
314  4.841434
313.8  5.0373578
313.6  4.5782994
313.4  4.2593455
313.2  3.6308637
313  4.508568
312.8  5.1085019
312.6  4.9150582
312.4  4.5780507
312.2  4.8968847
312  4.369364
311.8  6.2845953
311.6  5.0553446
311.4  4.8744433
311.2  5.2971421
311  6.0723007
310.8  5.2199905
310.6  4.7833543
310.4  4.6675497
310.2  4.9906173
310  4.3238295
309.8  5.727905
309.6  5.4465511
309.4  5.4515548
309.2  5.1490927
309  4.1672347
308.8  4.3906057
308.6  4.6247148
308.4  4.9830378
308.2  4.5774991
308  3.9135919
307.8  4.9127648
307.6  4.6826646
307.4  4.7379524
307.2  4.3050387
307  4.4215352
306.8  5.7240625
306.6  4.8532343
306.4  4.5076423
306.2  4.5262756
306  4.4545462
305.8  5.0820736
305.6  4.90819
305.4  4.3503581
305.2  5.1296955
305  4.1726022
304.8  4.2271564
304.6  4.6429125
304.4  4.2754937
304.2  4.3634386
304  5.3149217
303.8  4.5736671
303.6  4.5485032
303.4  4.2483509
303.2  4.0498544
303  4.3993374
302.8  4.8477545
302.6  3.8478507
302.4  5.3806691
302.2  5.0906282
302  4.8326476
301.8  4.9483812
301.6  5.3425844
301.4  4.5776735
301.2  4.9987821
301  4.6357547
300.8  5.5741524
300.6  5.8794642
300.4  5.1310096
300.2  4.3945747
300  5.4570836
299.8  4.9200623
299.6  4.9845404
299.4  4.3451744
299.2  4.3996296
299  4.6242083
298.8  5.3113122
298.6  4.6019986
298.4  4.2448287
298.2  5.1996044
298  4.7079683
297.8  4.4908856
297.6  5.0232495
297.4  4.7040413
297.2  4.6607715
297  3.8624529
296.8  4.4980111
296.6  4.5225241
296.4  5.0576905
296.2  4.6286763
296  4.7419378
295.8  4.5829362
295.6  5.1219328
295.4  5.2769597
295.2  5.3435808
295  4.6766627
294.8  4.486394
294.6  5.09631
294.4  5.1409604
294.2  4.9017389
294  4.6834603
293.8  5.4164086
293.6  5.3648567
293.4  5.4202513
293.2  5.0559497
293  4.5787628
292.8  4.3340244
292.6  4.4117176
292.4  4.8601639
292.2  4.2809075
292  4.7088928
291.8  5.1881628
291.6  4.9187975
291.4  5.1099025
291.2  5.4150337
291  5.3619762
290.8  6.0764265
290.6  5.1938422
290.4  5.1974414
290.2  6.5977879
290  6.1154136
289.8  5.3210176
289.6  4.1454598
289.4  4.911079
289.2  4.6817521
289  4.9103667
288.8  4.5480787
288.6  4.5946147
288.4  4.6509758
288.2  5.2777303
288  6.027921
287.8  6.0667057
287.6  6.4540782
287.4  6.241235
287.2  6.8778126
287  6.9560054
286.8  6.8615129
286.6  7.3619513
286.4  8.3581364
286.2  8.2119207
286  9.1618243
285.8  10.052441
285.6  8.602049
285.4  9.992836
285.2  11.528894
285  11.082585
284.8  8.546999
284.6  7.2772288
284.4  6.856582
284.2  5.4747736
284  5.4747426
283.8  5.3640792
283.6  5.2167119
283.4  4.629278
283.2  4.4428087
283  4.3426389
282.8  3.7660639
282.6  3.8173459
282.4  3.8791379
282.2  4.851553
282  5.1621573
281.8  5.7026237
281.6  4.5446826
281.4  5.1028312
281.2  4.6039907
281  4.553247
280.8  4.831014
280.6  4.8741507
280.4  3.9520707
280.2  3.9059885
280  4.0011577
279.8  4.2386622
279.6  4.8176181
279.4  4.7909235
279.2  4.3818983
279  5.2319147
278.8  4.6602077
278.6  4.7030891
278.4  4.5056717
278.2  3.9433597
278  3.8787696
277.8  4.2316938
277.6  4.771542
277.4  4.452352
277.2  3.7900181
277  4.2543945
276.8  4.8542402
276.6  4.5790209
276.4  5.2951519
276.2  5.1664358
276  5.1783953
275.8  6.173139
275.6  5.492702
275.4  5.3324181
275.2  5.4846493
275  4.4770444
274.8  5.2384242
274.6  5.0240093
274.4  4.2678464
274.2  5.2597621
274  4.7584401
273.8  4.7189937
273.6  3.9045376
273.4  5.0896395
273.2  4.8391679
273  5.1768445
272.8  5.2153139
272.6  4.8644706
272.4  5.0176975
272.2  5.160527
272  5.9890402
271.8  4.1831574
271.6  4.3460813
271.4  4.6426268
271.2  5.4640825
271  4.2199802
270.8  5.0874783
270.6  4.9974744
270.4  4.9994699
270.2  5.0491682
270  5.1110354
269.8  5.3218903
269.6  5.6654908
269.4  4.9889348
269.2  4.4803791
269  5.4417807
268.8  4.776627
268.6  5.096937
268.4  4.986765
268.2  4.5400831
268  5.2981233
267.8  5.5814467
267.6  4.9220785
267.4  4.9966091
267.2  4.9406864
267  5.0800645
266.8  4.604361
266.6  4.2892717
266.4  5.0348476
266.2  4.9720616
266  4.7435716
265.8  5.9018894
265.6  4.1165649
265.4  3.9868453
265.2  4.3350237
265  4.5700557
264.8  4.2735803
264.6  4.1595323
264.4  5.0237065
264.2  5.071452
264  4.7824048
263.8  4.9362269
263.6  4.9459644
263.4  5.5648467
263.2  4.9791826
263  4.9731644
262.8  4.7190727
262.6  4.5911609
262.4  4.9832573
262.2  4.3233669
262  4.7116735
261.8  4.9396945
261.6  4.9968866
261.4  4.3167018
261.2  4.2002219
261  4.0963574
260.8  4.5487759
260.6  4.9974554
260.4  5.4190228
260.2  5.562225
260  5.0449761
259.8  4.6962835
259.6  4.4306958
259.4  5.0942694
259.2  5.8050137
259  4.352644
258.8  4.111607
258.6  5.0473017
258.4  4.6625011
258.2  4.3990055
258  4.9672062
257.8  4.9807873
257.6  4.2853217
257.4  5.1133558
257.2  4.2943305
257  4.8393736
256.8  5.8815369
256.6  5.4445936
256.4  5.7386896
256.2  5.3070255
256  5.6025924
255.8  5.03094
255.6  5.2406877
255.4  6.0026599
255.2  5.3902415
255  4.5581545
254.8  4.6912201
254.6  4.5239578
254.4  4.7748129
254.2  4.3626272
254  5.146829
253.8  4.5323444
253.6  5.022623
253.4  4.6918095
253.2  5.5615316
253  5.2466637
252.8  4.3423177
252.6  4.9437578
252.4  4.2154083
252.2  5.4961284
252  5.9801602
251.8  5.3158927
251.6  4.7501806
251.4  5.3345335
251.2  5.2359018
251  4.3162494
250.8  4.7906381
250.6  4.6045666
250.4  4.4047764
250.2  4.990043
250  5.0229686
249.8  5.1875901
249.6  4.9751766
249.4  4.7747011
249.2  4.5793298
249  5.4787465
248.8  4.4682094
248.6  5.1121001
248.4  4.6752466
248.2  5.1871801
248  5.0423125
247.8  5.2379092
247.6  5.4497155
247.4  5.5252751
247.2  5.1151805
247  5.1401191
246.8  6.0237334
246.6  5.7941508
246.4  5.6956556
246.2  5.8028656
246  5.0944525
245.8  5.1001562
245.6  5.1647069
245.4  4.846585
245.2  4.9803074
245  5.7174473
244.8  4.864226
244.6  4.6658221
244.4  4.9790669
244.2  5.603513
244  5.3367862
243.8  4.5216438
243.6  5.1594407
243.4  4.9493168
243.2  4.7875499
243  4.9254629
242.8  5.624387
242.6  4.7544914
242.4  4.7883783
242.2  5.2755591
242  5.0714962
241.8  5.5475886
241.6  5.917489
241.4  4.3901948
241.2  4.3312368
241  4.4160208
240.8  5.0782606
240.6  5.0497988
240.4  5.2937131
240.2  5.413186
240  4.3270026
239.8  5.5097502
239.6  5.2622407
239.4  5.7430495
239.2  4.2736936
239  5.0167413
238.8  4.4708743
238.6  4.9809414
238.4  5.0352737
238.2  5.1520463
238  5.0851339
237.8  4.9940811
237.6  5.8847706
237.4  5.1565479
237.2  4.9163384
237  5.0485456
236.8  4.8710938
236.6  5.7165009
236.4  5.3431893
236.2  4.8145546
236  4.827632
235.8  4.6156875
235.6  4.4263027
235.4  5.2729118
235.2  5.0797702
235  5.1892202
234.8  4.7653951
234.6  5.1018461
234.4  5.8093936
234.2  6.6107411
234  5.4296031
233.8  5.3189809
233.6  5.0029364
233.4  4.9729382
233.2  5.1514914
233  5.1424757
232.8  6.0095826
232.6  5.3114373
232.4  4.8835616
232.2  5.4720044
232  6.2976589
231.8  6.5559017
231.6  5.6576809
231.4  4.7925743
231.2  4.6173912
231  5.0115752
230.8  5.2084952
230.6  4.3520443
230.4  5.2617898
230.2  4.9127793
230  5.6657392
229.8  6.0427601
229.6  6.1262933
229.4  5.4158437
229.2  5.0524569
229  5.970819
228.8  5.7560004
228.6  5.7402728
228.4  4.6727196
228.2  5.1805564
228  5.6581953
227.8  5.1959805
227.6  5.2935837
227.4  4.0585165
227.2  4.1853651
227  5.4690452
226.8  6.1556616
226.6  5.864732
226.4  5.8574083
226.2  5.4245523
226  5.6821729
225.8  5.8242956
225.6  4.4053895
225.4  5.3220725
225.2  5.8192457
225  5.4916319
224.8  5.4056917
224.6  5.5934844
224.4  6.3343139
224.2  5.5632646
224  4.4735893
223.8  4.8435531
223.6  5.5775485
223.4  5.4743235
223.2  5.4983519
223  4.8587407
222.8  4.8128399
222.6  5.4887977
222.4  5.0993159
222.2  5.0049798
222  5.0317705
221.8  5.2570314
221.6  5.752968
221.4  4.9109672
221.2  5.1805525
221  5.9267316
220.8  5.4587819
220.6  5.5229585
220.4  6.3046893
220.2  5.7936254
220  5.513948
219.8  4.8112538
219.6  5.4204096
219.4  4.9877976
219.2  5.8561231
219  5.4365777
218.8  4.7928058
218.6  5.6520396
218.4  4.823125
218.2  5.0994499
218  5.6362779
217.8  5.2846065
217.6  5.4606699
217.4  5.2947448
217.2  5.4569912
217  5.3200587
216.8  5.2512097
216.6  4.6618809
216.4  5.8992647
216.2  5.6044776
216  5.156229
215.8  5.3156853
215.6  5.4886102
215.4  5.0421181
215.2  4.1684554
215  5.1047784
214.8  5.6503954
214.6  5.7610613
214.4  4.78876
214.2  5.3910018
214  4.470933
213.8  4.3267202
213.6  4.7058707
213.4  5.8197276
213.2  5.0605481
213  5.0265106
212.8  4.7754244
212.6  4.7010478
212.4  5.3176941
212.2  6.2999501
212  6.1289233
211.8  4.5185552
211.6  5.0323775
211.4  5.3595854
211.2  5.0000691
211  5.8541537
210.8  5.9176005
210.6  5.9433812
210.4  5.457101
210.2  5.8758849
210  6.1479016
209.8  5.2506477
209.6  5.3002425
209.4  5.6345282
209.2  4.8545637
209  5.6803867
208.8  6.5665083
208.6  5.880836
208.4  6.0290168
208.2  5.5585911
208  5.3067548
207.8  5.2865292
207.6  5.238354
207.4  5.5692403
207.2  5.354363
207  4.9870139
206.8  4.337458
206.6  5.41108
206.4  5.2753713
206.2  5.2934453
206  5.4833602
205.8  6.5066634
205.6  5.5242379
205.4  4.7718842
205.2  5.4784031
205  5.5500816
204.8  5.2426784
204.6  5.9378534
204.4  4.6098209
204.2  5.7479358
204  6.0185743
203.8  5.9402008
203.6  5.707916
203.4  5.4546913
203.2  6.6190427
203  5.9991175
202.8  5.3126593
202.6  5.4685529
202.4  5.2515545
202.2  4.6460788
202  5.1885405
201.8  6.0428139
201.6  7.9549621
201.4  5.5487284
201.2  5.5722262
201  6.6649425
200.8  5.6877431
200.6  6.1156974
200.4  6.531465
200.2  7.7508459
200  5.7316105
199.8  5.2286035
199.6  6.0615072
199.4  5.6987851
199.2  6.4397593
199  7.3769535
198.8  6.7963426
198.6  6.5069224
198.4  6.0933161
198.2  5.4897909
198  5.3874237
197.8  5.4012317
197.6  6.2326655
197.4  6.188967
197.2  5.4739244
197  5.296206
196.8  5.4591918
196.6  6.1790583
196.4  7.0719096
196.2  5.2805098
196  5.8039203
195.8  5.0556531
195.6  4.9785978
195.4  5.7642534
195.2  5.1165506
195  4.5556666
194.8  4.4556339
194.6  5.2300542
194.4  5.0240781
194.2  5.4240471
194  6.0324972
193.8  6.1029643
193.6  5.7483055
193.4  6.5790415
193.2  6.422375
193  5.9211659
192.8  6.5450459
192.6  5.2749968
192.4  5.7131039
192.2  6.2713656
192  5.1462698
191.8  5.1267339
191.6  5.2064544
191.4  5.4520723
191.2  5.8813116
191  6.5169955
190.8  5.3938844
190.6  5.8179632
190.4  5.6323794
190.2  4.6642468
190  5.7858813
189.8  5.7121746
189.6  5.2883114
189.4  4.6184855
189.2  5.3490631
189  6.418291
188.8  6.1790824
188.6  6.1259215
188.4  5.684436
188.2  5.4490164
188  5.8482852
187.8  6.3367828
187.6  5.8495378
187.4  5.8771156
187.2  5.7667197
187  5.4954942
186.8  5.4298776
186.6  4.6877694
186.4  4.9521222
186.2  6.5015784
186  5.7227541
185.8  5.0788612
185.6  6.0716229
185.4  6.5329399
185.2  6.8889319
185  6.3295281
184.8  6.1435732
184.6  5.767644
184.4  5.7114172
184.2  4.9573272
184  5.7089171
183.8  5.2661468
183.6  6.1966103
183.4  5.6931353
183.2  6.364173
183  6.1301698
182.8  5.4233875
182.6  5.6795965
182.4  6.1482769
182.2  5.7474423
182  5.8483946
181.8  5.3770805
181.6  5.672267
181.4  4.8133844
181.2  6.322583
181  5.7953255
180.8  5.2564956
180.6  6.2665197
180.4  7.554772
180.2  7.3866566
180  5.5753434
179.8  6.1519641
179.6  5.5045004
179.4  6.0878925
179.2  6.1539505
179  5.3369504
178.8  6.2863019
178.6  6.1952587
178.4  5.9686877
178.2  6.702856
178  6.3445208
177.8  6.1156646
177.6  6.5990407
177.4  5.6172723
177.2  5.946781
177  5.7828522
176.8  5.9410867
176.6  6.0509021
176.4  5.3105785
176.2  5.5743152
176  5.9387398
175.8  5.7514187
175.6  5.5488922
175.4  6.5119464
175.2  6.8178037
175  6.0202879
174.8  6.3561864
174.6  6.6713428
174.4  6.3873097
174.2  6.1299316
174  6.589918
173.8  5.8101813
173.6  6.4058911
173.4  7.2740524
173.2  5.9117772
173  5.6292459
172.8  6.0313003
172.6  6.2281288
172.4  6.4570063
172.2  5.741164
172  6.450135
171.8  6.4512924
171.6  6.0811684
171.4  5.938206
171.2  6.4630028
171  6.0275552
170.8  6.2178019
170.6  5.9380367
170.4  5.9148161
170.2  6.6872239
170  6.0634795
169.8  6.5173795
169.6  6.3687551
169.4  5.6892542
169.2  5.7830017
169  5.8806526
168.8  6.3574314
168.6  6.3761339
168.4  6.2393156
168.2  6.135137
168  6.6616335
167.8  6.2348178
167.6  5.9684468
167.4  6.0900149
167.2  6.7766505
167  6.5768288
166.8  6.0008261
166.6  6.1335701
166.4  5.8296994
166.2  7.0879125
166  6.7444726
165.8  6.14294
165.6  7.1875304
165.4  6.3183408
165.2  7.4169785
165  6.2649762
164.8  5.8427715
164.6  6.8681993
164.4  6.7366909
164.2  6.8628192
164  7.6179381
163.8  6.3110226
163.6  6.2894117
163.4  6.9445302
163.2  6.8733418
163  6.6698033
162.8  6.4794889
162.6  6.4403283
162.4  6.4627658
162.2  6.4937002
162  6.9883439
161.8  6.5515389
161.6  6.3690597
161.4  6.5027685
161.2  6.1669955
161  6.5881193
160.8  7.2587152
160.6  7.3253556
160.4  7.1537077
160.2  6.0089183
160  5.2537367
159.8  6.0476353
159.6  5.4974688
159.4  6.6067477
159.2  6.6107448
159  7.1887389
158.8  7.0404347
158.6  5.6058069
158.4  6.6977912
158.2  6.5714487
158  7.1068626
157.8  5.7065808
157.6  5.6116314
157.4  7.0156512
157.2  5.4739023
157  5.8192055
156.8  6.6165643
156.6  6.5746168
156.4  6.4602518
156.2  6.8361101
156  6.3099539
155.8  6.1752273
155.6  6.9228278
155.4  6.5771848
155.2  7.2069871
155  6.6943627
154.8  7.3921893
154.6  7.4588211
154.4  7.0536759
154.2  6.6086059
154  6.7837321
153.8  8.0682919
153.6  8.6032837
153.4  6.6129176
153.2  6.9300218
153  7.3264394
152.8  6.7489427
152.6  7.2332224
152.4  7.6063822
152.2  6.9046111
152  5.9602805
151.8  6.4360074
151.6  6.4095138
151.4  6.9064074
151.2  7.3098888
151  6.9507888
150.8  7.5362417
150.6  7.4130595
150.4  6.2209702
150.2  7.5463009
150  6.3411781
149.8  6.9889714
149.6  8.0589195
149.4  7.5335792
149.2  7.367967
149  7.062858
148.8  7.4966326
148.6  7.9571647
148.4  7.7500502
148.2  7.0522476
148  6.5940773
147.8  6.360501
147.6  6.1554646
147.4  7.3295218
147.2  6.7834843
147  7.6356598
146.8  7.4384227
146.6  6.9400505
146.4  6.9104252
146.2  7.5502295
146  7.3997407
145.8  7.0939038
145.6  7.0961359
145.4  6.2615622
145.2  7.2070878
145  8.1377158
144.8  8.6989277
144.6  7.869041
144.4  7.2745774
144.2  7.6797018
144  6.92958
143.8  6.9404145
143.6  7.2100957
143.4  7.6537166
143.2  5.8938326
143  6.9436196
142.8  8.738659
142.6  7.6422417
142.4  7.2774649
142.2  7.383523
142  7.6961957
141.8  8.5180361
141.6  7.2146362
141.4  7.5673117
141.2  8.0220855
141  7.4391795
140.8  7.5095157
140.6  7.3498341
140.4  7.2435369
140.2  7.5493194
140  7.0480912
139.8  6.8244435
139.6  6.5994966
139.4  7.1397349
139.2  6.6347218
139  6.9731847
138.8  7.6883573
138.6  6.9756688
138.4  6.9685421
138.2  7.3508977
138  7.0905962
137.8  8.2066241
137.6  7.8047535
137.4  7.4488249
137.2  7.8182149
137  7.6321444
136.8  7.3431182
136.6  7.7100965
136.4  7.3811416
136.2  6.0536152
136  7.0872311
135.8  7.2234888
135.6  7.707146
135.4  7.2030783
135.2  6.9756579
135  7.0461818
134.8  7.2301875
134.6  8.3672314
134.4  8.4362339
134.2  8.1641285
134  7.8554269
133.8  7.4336905
133.6  7.3105862
133.4  7.2407618
133.2  8.1747933
133  7.2113787
132.8  7.4716398
132.6  7.1291893
132.4  7.4694288
132.2  7.5857948
132  8.0894293
131.8  7.3096528
131.6  6.7468239
131.4  7.101425
131.2  6.6773407
131  7.9723859
130.8  6.7713414
130.6  6.5272597
130.4  7.0142852
130.2  7.3457869
130  7.3333147
129.8  7.387473
129.6  7.4432421
129.4  6.5492974
129.2  7.9959338
129  7.6500431
128.8  7.8799036
128.6  7.8786006
128.4  7.7938123
128.2  7.2253221
128  6.8727536
127.8  7.5610415
127.6  8.2971814
127.4  8.2243916
127.2  9.0096535
127  9.1068664
126.8  8.3283654
126.6  8.030703
126.4  8.1459732
126.2  7.2186594
126  8.5662981
125.8  8.7148447
125.6  9.1682821
125.4  9.308673
125.2  9.2076976
125  8.6379908
124.8  10.371862
124.6  12.227078
124.4  11.880521
124.2  13.540151
124  14.033265
123.8  15.814428
123.6  15.82604
123.4  17.347412
123.2  19.694738
123  19.180407
122.8  16.545678
122.6  18.10167
122.4  16.315485
122.2  13.790816
122  11.620348
121.8  12.064436
121.6  11.801282
121.4  10.45758
121.2  9.1590108
121  8.4941198
120.8  8.7875635
120.6  9.1787754
120.4  7.2159199
120.2  7.2266137
120  7.3290744
119.8  7.4482961
119.6  7.3399798
119.4  7.7735137
119.2  7.4701714
119  7.5346426
118.8  6.7812913
118.6  7.0557475
118.4  6.5587929
118.2  7.6172934
118  7.4816592
117.8  6.8374253
117.6  7.0106927
117.4  7.2678713
117.2  6.3330869
117  6.4576341
116.8  6.6255565
116.6  6.8061634
116.4  6.3813212
116.2  6.3993588
116  6.8501395
115.8  6.3867096
115.6  6.2088104
115.4  7.8655726
115.2  6.3911019
115  6.8512943
114.8  7.6423586
114.6  6.2493588
114.4  6.9560323
114.2  7.1706686
114  6.3953507
113.8  7.4729014
113.6  7.1325322
113.4  6.6748806
113.2  6.6107172
113  7.0840627
112.8  7.8658376
112.6  6.1896623
112.4  6.7833213
112.2  6.020868
112  5.7673204
111.8  7.1487638
111.6  7.114513
111.4  6.9728993
111.2  6.8296147
111  7.1317265
110.8  6.8718626
110.6  6.2061501
110.4  6.8203655
110.2  6.8056292
110  7.1245972
109.8  5.7387164
109.6  7.0654388
109.4  7.1296653
109.2  6.4589997
109  7.2297757
108.8  5.8211717
108.6  6.2898113
108.4  7.3976361
108.2  7.4915617
108  7.1504213
107.8  8.2419195
107.6  7.5713519
107.4  6.3365329
107.2  7.3802736
107  8.8632753
106.8  8.4737531
106.6  7.7885793
106.4  8.3496705
106.2  6.7597316
106  8.071677
105.8  8.3623513
105.6  7.8266524
105.4  7.2797455
105.2  6.6593654
105  6.4111236
104.8  7.3705266
104.6  7.3000716
104.4  7.4269179
104.2  6.0897021
104  6.3734369
103.8  7.2296014
103.6  7.2361187
103.4  6.536784
103.2  6.8729726
103  7.8559335
102.8  6.7418151
102.6  7.2973439
102.4  8.2826912
102.2  7.3239963
102  7.1273476
101.8  7.7195809
101.6  6.8821739
101.4  7.3092307
101.2  7.050682
101  8.3776455
100.8  6.8338042
100.6  6.5037026
100.4  7.1587809
100.2  6.475136
100  6.6961048
99.8  7.2677958
99.6  8.2544473
99.4  7.6977148
99.2  8.5736965
99  5.988821
98.8  6.6007861
98.6  8.1796167
98.4  7.5479802
98.2  7.9038199
98  8.1996774
97.8  7.3291419
97.6  8.1485895
97.4  8.6639882
97.2  7.6399157
97  7.7833599
96.8  8.4810874
96.6  7.6166023
96.4  8.4305403
96.2  8.9058513
96  8.8707522
95.8  8.5178198
95.6  8.815165
95.4  7.6784497
95.2  6.480828
95  7.5280136
94.8  8.9720551
94.6  8.0303868
94.4  7.9124179
94.2  7.7718459
94  7.4199477
93.8  8.5289463
93.6  7.3988632
93.4  6.5386198
93.2  6.6605037
93  6.7120481
92.8  6.4689427
92.6  6.2353453
92.4  5.6611441
92.2  7.3877435
92  6.8395351
91.8  6.646057
91.6  7.4707507
91.4  6.417032
91.2  6.6382919
91  6.080721
90.8  6.8536833
90.6  6.783209
90.4  6.7470752
90.2  5.8304867
90  7.0153604
89.8  6.9877462
89.6  6.9691361
89.4  5.525709
89.2  6.7355486
89  6.4819667
88.8  7.1022986
88.6  7.6095497
88.4  6.6377656
88.2  6.6573427
88  6.8378428
87.8  7.3271143
87.6  6.4173323
87.4  6.9458123
87.2  7.398512
87  7.3753203
86.8  5.6134217
86.6  6.9246596
86.4  7.4395587
86.2  6.0255928
86  5.4803617
85.8  6.0200262
85.6  6.3623853
85.4  7.5561627
85.2  7.4917807
85  6.8547355
84.8  7.2755439
84.6  6.9417674
84.4  6.955146
84.2  6.0505867
84  6.3592779
83.8  6.478915
83.6  6.278373
83.4  6.6247883
83.2  7.032497
83  6.9796247
82.8  7.2014954
82.6  7.799498
82.4  7.1397162
82.2  8.562706
82  7.8776963
81.8  6.902598
81.6  7.7226607
81.4  6.5636613
81.2  6.4846314
81  8.386057
80.8  9.615828
80.6  8.5346327
80.4  8.2842053
80.2  8.9811531
80  10.06951
79.8  11.217644
79.6  11.604447
79.4  12.080808
79.2  12.937022
79  15.454654
78.8  16.961041
78.6  18.184608
78.4  18.792416
78.2  19.101887
78  21.115304
77.8  20.353068
77.6  22.188331
77.4  20.562069
77.2  19.925789
77  23.974682
76.8  22.476087
76.6  23.141524
76.4  24.037748
76.2  28.907964
76  29.979125
75.8  29.677447
75.6  29.978366
75.4  29.64283
75.2  27.592046
75  25.346156
74.8  20.450582
74.6  17.555658
74.4  15.003435
74.2  11.498324
74  10.246022
73.8  8.7758424
73.6  7.0937345
73.4  6.5710414
73.2  6.524307
73  5.8261387
72.8  5.7575501
72.6  5.6385564
72.4  5.1291479
72.2  4.4603184
72  4.0986487
71.8  4.012149
71.6  3.3368826
71.4  4.8845103
71.2  3.8081246
71  3.3033144
70.8  2.4177172
70.6  2.638231
70.4  2.6688246
70.2  2.9050357
70  3.1517715
69.8  2.5559018
69.6  3.1668769
69.4  2.9169122
69.2  2.8388438
69  2.7264644
68.8  2.8504429
68.6  2.6229667
68.4  2.3856864
68.2  2.4096439
68  2.3395871
67.8  2.1603843
67.6  2.2094836
67.4  1.4856723
67.2  2.2993396
67  1.932657
66.8  2.2602284
66.6  1.9268012
66.4  1.8289325
66.2  1.6232426
66  1.5944391
65.8  1.5907451
65.6  1.6903033
65.4  1.7752327
65.2  1.8987542
65  2.0527782
64.8  2.0415298
64.6  1.8528383
64.4  2.0860304
64.2  1.763522
64  2.0475809
63.8  1.7120267
63.6  1.813699
63.4  1.8376899
63.2  1.7929487
63  2.3434272
62.8  1.762414
62.6  1.8769913
62.4  2.0857298
62.2  1.7666346
62  1.9929452
61.8  2.1793575
61.6  1.9037112
61.4  1.8794035
61.2  1.8278127
61  1.5263144
60.8  1.6653907
60.6  2.1250009
60.4  2.1309016
60.2  1.9874973
60  2.6881301
59.8  2.0251177
59.6  2.0697545
59.4  2.2634569
59.2  1.9245633
59  1.9210173
58.8  2.3977196
58.6  1.8513638
58.4  2.0843967
58.2  2.2195107
58  1.98469
57.8  1.9974738
57.6  2.2034675
57.4  2.1468908
57.2  1.6133966
57  1.922796
56.8  1.7176087
56.6  1.9307836
56.4  2.3485892
56.2  1.782603
56  0.96534378
55.8  1.4204331
55.6  1.9753227
55.4  2.4342032
55.2  2.1825968
55  1.7839593
54.8  1.417886
54.6  1.8944488
54.4  1.4741453
54.2  1.4014058
54  1.501866
53.8  1.581808
53.6  1.4488451
53.4  1.2577037
53.2  1.6705797
53  2.3778951
52.8  1.6923318
52.6  1.3954998
52.4  2.1751454
52.2  2.05406
52  1.8583541
51.8  2.5881071
51.6  1.7404013
51.4  2.0175323
51.2  2.0330224
51  1.9249491
50.8  1.9591627
50.6  1.9980664
50.4  1.6717279
50.2  2.1314959
50  1.8030358
49.8  1.6020953
49.6  1.7245429
49.4  1.7833816
49.2  1.8097364
49  3.1975645
48.8  2.2143225
48.6  1.4801505
48.4  1.4894354
48.2  1.7951039
48  1.8616913
47.8  2.2236774
47.6  1.7708976
47.4  2.1798484
47.2  2.3654567
47  1.9175557
46.8  1.8987954
46.6  1.4545144
46.4  1.9089611
46.2  1.8857584
46  1.565644
45.8  2.3655499
45.6  2.0641712
45.4  1.8924432
45.2  2.082717
45  1.5877025
44.8  1.6678779
44.6  1.5996086
44.4  1.5851747
44.2  2.3178979
44  2.4294669
43.8  2.5821768
43.6  2.1880975
43.4  2.1541887
43.2  1.8658119
43  1.9847592
42.8  2.0006259
42.6  1.9539442
42.4  2.2142328
42.2  2.6364238
42  1.9586457
41.8  2.3666527
41.6  2.3961021
41.4  2.3174333
41.2  2.0802095
41  2.2099671
40.8  2.2761181
40.6  2.0506291
40.4  1.9471981
40.2  2.3078945
40  2.3491317
39.8  1.8856321
39.6  1.8837333
39.4  1.7872731
39.2  1.5519823
39  2.2143589
38.8  1.783104
38.6  1.5903214
38.4  1.6038551
38.2  1.9227249
38  2.2522401
37.8  2.6637861
37.6  2.1944412
37.4  1.8263351
37.2  2.127405
37  2.5488638
36.8  2.1582729
36.6  1.8896492
36.4  2.2289909
36.2  2.1570063
36  2.3557568
35.8  2.7821352
35.6  2.4846507
35.4  2.7345095
35.2  2.430413
35  1.9146239
34.8  2.0254553
34.6  2.3888225
34.4  2.914503
34.2  3.1501801
34  2.9129427
33.8  2.2385413
33.6  2.3730062
33.4  1.6729888
33.2  1.9929489
33  2.4917305
32.8  2.4782425
32.6  2.2725514
32.4  2.2473751
32.2  2.5087073
32  2.1485397
31.8  2.545162
31.6  1.9937182
31.4  2.191361
31.2  2.3978094
31  2.3018024
30.8  2.1882874
30.6  1.8460282
30.4  2.1505887
30.2  2.6411316
30  2.7281071
29.8  2.4993721
29.6  2.289504
29.4  2.3743973
29.2  1.8717699
29  2.0404522
28.8  2.7228443
28.6  2.6932949
28.4  2.1340805
28.2  2.0539614
28  2.4317292
27.8  2.3261845
27.6  2.0808378
27.4  2.0666921
27.2  2.5199894
27  2.3299507
26.8  2.8329848
26.6  2.7000362
26.4  3.075651
26.2  3.1473857
26  2.560444
25.8  2.5998886
25.6  2.7070295
25.4  2.5347858
25.2  1.8566622
25  2.299241
24.8  2.2887676
24.6  2.4313378
24.4  2.5861814
24.2  2.1355158
24  2.2516382
23.8  2.4094254
23.6  2.2612046
23.4  2.3010478
23.2  2.3973128
23  2.0819462
22.8  2.4599913
22.6  2.784626
22.4  2.2167432
22.2  2.5070608
22  2.3328658
21.8  2.2876624
21.6  2.4145552
21.4  1.8314911
21.2  2.4460619
21  1.765454
20.8  2.7373434
20.6  3.2076707
20.4  4.1760129
20.2  2.7674528
20  2.3347279
19.8  2.5177248
19.6  2.0153209
19.4  1.9007563
19.2  2.1190326
19  2.1532709
18.8  2.7020714
18.6  2.3874262
18.4  1.9008873
18.2  1.8746328
18  1.4589827
17.8  1.9806296
17.6  2.2867383
17.4  2.1957348
17.2  2.4086583
17  2.4418965
16.8  2.0086692
16.6  1.9180979
16.4  2.021266
16.2  1.701597
16  2.4732253
15.8  2.4004263
15.6  2.4340088
15.4  2.5106502
15.2  2.4200586
15  2.6274402
14.8  2.1360998
14.6  2.2940825
14.4  1.921504
14.2  2.026487
14  1.9234896
13.8  1.8705112
13.6  2.3958571
13.4  2.3327302
13.2  2.0063847
13  2.2240509
12.8  1.7026924
12.6  1.5739877
12.4  1.9603959
12.2  2.1077277
12  1.9573127
11.8  2.0841939
11.6  2.050545
11.4  1.6037668
11.2  1.7169097
11  1.6349664
10.8  1.5032309
10.6  1.9443269
10.4  2.0264529
10.2  1.9121663
10  1.8681806
9.8  1.8651352
9.6  1.6575684
9.4  1.7844329
9.2  1.8246406
9  2.2101603
8.8  1.9373042
8.6  1.8576737
8.4  2.0865116
8.2  1.8550092
8  2.4469758
7.8  2.1744853
7.6  2.5033249
7.4  3.0444611
7.2  2.1516953
7  2.8876071
6.8  3.3482485
6.6  3.9286209
6.4  3.5113734
6.2  4.0504135
6  4.6143817
5.8  4.6278322
5.6  5.4873624
5.4  7.2921359
5.2  7.2601424
5  7.3387753
4.8  10.303239
4.6  11.874237
4.4  10.992451
4.2  11.898083
4  13.774585
3.8  15.252356
3.6  14.776635
3.4  13.868748
3.2  14.393933
3  12.512732
2.8  10.049985
2.6  7.3472454
2.4  4.6853337
2.2  3.1154581
2  1.963864
1.8  1.3992909
1.6  1.1103027
1.4  1.2938509
1.2  1.374699
1  1.3286954
0.8  1.5429326
0.6  1.2515489
0.4  0.70967521
0.2  0.46487998
0  0.44557758
-0.2  0.40641354
-0.4  2.3918851
-0.6  1.1283492
-0.8  0.50598657
-1  0.49682844
-1.2  0.48091652
-1.4  0.5078315
-1.6  0.39823155
-1.8  0.40916595
-2  0.48654636
-2.2  0.44127505
-2.4  0.41846272
-2.6  0.44559667
-2.8  0.3951273
-3  0.39919671
-3.2  0.39321776
-3.4  0.39689821
